Folder: physicsEX_report/XRD-20251211 (part 2)

File: 1-5_2-Theta_Omega.asc
*TYPE		=  Raw
*CLASS		=  ASCII CLASS
*SAMPLE		=
*COMMENT	=
*FNAME		=  1-5_2-Theta_Omega.asc
*DATE		=  11-Dec-25 15:27

*GROUP_COUNT	=  1
*GONIO		=  SmartLab(In-plane), 0.000000
*ATTACHMENT	=  Z-Phi Stage
*ASC		=  0, 0, 0.000000, 0.000000
*I_MONOCHRO	=  Soller_slit_5.0deg, 0.000000
*FILTER		=  None
*C_MONOCHRO	=  None, 0.000000
*SLIT_NAME	=  0, Incident slit
*SLIT_NAME	=  1, Receiving slit # 1
*SLIT_NAME	=  2, Receiving slit # 2
*COUNTER	=  SC-70, 0
*POS_FORMAT	=  0
*SCAN_AXIS	=  2Theta/Omega
*MEAS_MODE	=  Continuous Scanning
*TARGET		=  29
*XRAY_CHAR	=  K-ALPHA
*WAVE_LENGTH1	=  1.54059
*WAVE_LENGTH2	=  1.54441
*THICKNESS	=  0, 0.000000
*MU		=  0, 0.000000
*SCAN_MODE	=  2Theta/Omega
*SPEED_DIM	=  sec./step
*XUNIT		=  deg.
*YUNIT		=  counts
*SCALE_MODE	=  1
*REP_COUNT	=  0
*SE_COUNT	=  0
*STD_MATERIAL	=  Unknown, Unknown, 0.000000, 0.000000, 0.000000, 0.000000, 0.000000, 0.000000
*LATT_CONS	=  0, Unknown, Unknown, 0.000000, 0.000000, 0.000000, 0.000000, 0.000000, 0.000000
*SEC_COUNT	=  1
*TSPEC_SIZE	=  0
*EXTRA_SIZE	=  0
*MEMO		=

*BEGIN
*GROUP		=  0
*START		=  20
*STOP		=  80
*STEP		=  0.01
*OFFSET		=  0.000000
*SPEED		=  0.05
*SLIT_SPEC	=  0, 1.000mm, 1, 0.000000
*SLIT_SPEC	=  1, 1.000mm, 1, 0.000000
*SLIT_SPEC	=  2, 1.000mm, 1, 0.000000
*KV		=  40
*MA		=  100
*LOW		=  0.000000
*HIGH		=  0.000000
*CTEMPER	=  0, 0.000000
*CTEMPER	=  1, 0.000000
*CTEMPER	=  2, 0.000000
*PAREX		=  0, 0.000000
*PAREX		=  1, 0.000000
*PAREX		=  2, 0.000000
*PAREX		=  3, 0.000000
*PAREX		=  4, 0.000000
*PAREX		=  5, 0.000000
*PAREX		=  6, 0.000000
*PAREX		=  7, 0.000000
*PAREX		=  8, 0.000000
*PAREX		=  9, 0.000000
*PAREX		=  10, 0.000000
*PAREX		=  11, 0.000000
*PAREX		=  12, 0.000000
*PAREX		=  13, 0.000000
*PAREX		=  14, 0.000000
*PAREX		=  15, 0.000000
*FULL_SCALE	=  5880
*INDEX		=  0, 0, 0
*COUNT		=  6001
92, 70, 83, 57
86, 90, 83, 98
85, 71, 88, 70
71, 87, 81, 90
83, 70, 85, 90
92, 68, 93, 73
58, 117, 82, 82
74, 72, 70, 78
81, 75, 75, 89
80, 83, 80, 82
76, 80, 101, 89
78, 77, 100, 93
57, 72, 76, 74
77, 70, 70, 97
70, 76, 90, 84
88, 76, 86, 81
84, 68, 91, 75
80, 80, 67, 74
60, 77, 79, 93
88, 83, 73, 75
82, 68, 74, 65
86, 85, 71, 86
70, 108, 89, 99
91, 74, 58, 67
82, 70, 75, 105
76, 71, 102, 80
68, 76, 66, 67
82, 75, 84, 91
104, 64, 90, 88
77, 74, 82, 84
71, 86, 65, 92
67, 63, 75, 63
76, 74, 90, 80
78, 78, 92, 89
83, 71, 75, 69
79, 82, 64, 72
84, 85, 82, 74
79, 65, 75, 72
85, 73, 83, 79
89, 75, 84, 87
66, 79, 79, 67
63, 83, 77, 78
80, 83, 80, 63
72, 63, 91, 78
79, 63, 73, 67
69, 74, 73, 83
97, 76, 78, 75
87, 80, 74, 87
88, 74, 78, 85
72, 83, 66, 67
78, 87, 83, 98
88, 63, 79, 74
69, 63, 78, 84
83, 94, 77, 72
67, 71, 78, 72
81, 63, 81, 61
64, 72, 77, 88
77, 73, 84, 75
80, 75, 68, 72
68, 87, 88, 66
81, 86, 72, 86
84, 55, 73, 57
73, 82, 80, 85
69, 63, 74, 73
76, 82, 80, 71
87, 74, 85, 82
92, 65, 85, 78
91, 91, 71, 87
70, 81, 76, 73
80, 96, 84, 78
79, 77, 91, 87
67, 87, 61, 76
74, 78, 70, 66
85, 84, 85, 89
81, 64, 73, 98
69, 79, 72, 80
78, 68, 83, 76
80, 85, 79, 88
92, 89, 78, 66
82, 89, 85, 80
76, 90, 82, 80
83, 77, 65, 90
79, 86, 83, 72
78, 95, 86, 85
86, 81, 85, 71
90, 92, 74, 60
84, 80, 69, 75
78, 83, 73, 86
73, 76, 72, 94
73, 77, 83, 80
77, 81, 79, 73
90, 86, 79, 77
81, 91, 84, 83
73, 75, 88, 78
85, 83, 82, 77
85, 77, 81, 94
82, 88, 102, 104
90, 78, 63, 87
88, 101, 81, 99
171, 161, 171, 210
199, 185, 178, 199
212, 225, 221, 221
167, 165, 151, 151
90, 80, 87, 82
77, 86, 78, 93
104, 83, 79, 89
94, 91, 91, 91
80, 92, 76, 71
80, 75, 78, 96
74, 73, 86, 89
83, 86, 79, 77
89, 70, 94, 89
90, 67, 81, 83
85, 84, 91, 87
75, 86, 79, 91
90, 80, 102, 73
55, 94, 74, 72
73, 91, 86, 83
73, 88, 92, 83
92, 96, 85, 82
80, 82, 55, 72
90, 80, 76, 90
93, 77, 60, 75
70, 81, 71, 81
95, 93, 88, 88
72, 82, 72, 78
76, 73, 94, 63
97, 72, 67, 61
69, 85, 84, 96
80, 81, 86, 88
101, 82, 77, 75
91, 71, 87, 83
77, 79, 87, 78
76, 71, 71, 70
79, 84, 87, 83
72, 91, 90, 75
69, 92, 77, 81
80, 78, 77, 65
81, 75, 80, 84
89, 110, 73, 80
85, 78, 80, 83
89, 79, 86, 81
75, 70, 68, 84
74, 81, 65, 76
78, 68, 90, 96
76, 64, 87, 81
72, 80, 86, 80
85, 64, 83, 77
87, 68, 90, 86
97, 79, 81, 97
82, 96, 83, 63
76, 77, 67, 93
78, 77, 81, 78
67, 72, 88, 62
78, 83, 87, 82
90, 89, 95, 88
80, 76, 90, 88
69, 76, 71, 79
88, 78, 91, 81
78, 91, 74, 84
99, 92, 101, 79
86, 82, 77, 79
69, 88, 93, 69
76, 66, 80, 97
73, 84, 78, 100
75, 62, 102, 82
84, 79, 67, 83
87, 91, 75, 83
95, 75, 92, 81
70, 102, 80, 64
74, 81, 90, 98
95, 91, 92, 95
80, 84, 81, 72
74, 76, 82, 92
76, 79, 80, 76
86, 87, 83, 74
80, 86, 69, 111
73, 72, 90, 97
74, 90, 85, 70
81, 78, 77, 85
70, 86, 90, 77
85, 79, 73, 83
84, 79, 63, 83
78, 88, 75, 81
77, 84, 80, 94
96, 106, 99, 83
108, 93, 95, 117
90, 93, 88, 83
85, 85, 83, 77
99, 79, 81, 100
98, 84, 87, 72
82, 70, 70, 80
92, 105, 90, 93
85, 72, 89, 103
75, 79, 85, 76
85, 87, 93, 79
93, 92, 89, 90
77, 75, 88, 87
76, 79, 88, 78
69, 73, 80, 89
73, 96, 97, 84
77, 73, 79, 91
99, 85, 88, 73
91, 87, 90, 84
73, 77, 94, 91
96, 76, 94, 87
89, 96, 82, 79
83, 86, 83, 81
87, 82, 80, 93
84, 73, 91, 90
99, 92, 83, 84
89, 93, 83, 76
94, 99, 88, 92
74, 93, 78, 82
89, 93, 87, 68
90, 90, 88, 101
81, 84, 75, 93
91, 86, 87, 89
91, 90, 77, 83
95, 67, 82, 85
100, 88, 97, 96
95, 71, 79, 101
92, 71, 87, 88
99, 91, 89, 89
85, 85, 89, 102
91, 86, 93, 86
84, 100, 79, 97
92, 81, 104, 109
100, 81, 89, 83
73, 114, 102, 99
94, 99, 111, 96
98, 88, 89, 97
99, 103, 99, 83
73, 90, 87, 88
89, 88, 86, 94
107, 82, 92, 100
81, 87, 93, 79
90, 102, 100, 84
92, 89, 81, 100
102, 86, 84, 90
91, 74, 83, 88
79, 95, 95, 92
98, 89, 85, 91
88, 86, 88, 102
97, 98, 91, 88
88, 96, 112, 94
96, 77, 102, 90
75, 88, 109, 91
98, 100, 91, 103
101, 99, 88, 86
84
*END

*EOF

File: 1-6_2-Theta_Omega.asc
*TYPE		=  Raw
*CLASS		=  ASCII CLASS
*SAMPLE		=
*COMMENT	=
*FNAME		=  1-6_2-Theta_Omega.asc
*DATE		=  11-Dec-25 15:35

*GROUP_COUNT	=  1
*GONIO		=  SmartLab(In-plane), 0.000000
*ATTACHMENT	=  Z-Phi Stage
*ASC		=  0, 0, 0.000000, 0.000000
*I_MONOCHRO	=  Soller_slit_5.0deg, 0.000000
*FILTER		=  None
*C_MONOCHRO	=  None, 0.000000
*SLIT_NAME	=  0, Incident slit
*SLIT_NAME	=  1, Receiving slit # 1
*SLIT_NAME	=  2, Receiving slit # 2
*COUNTER	=  SC-70, 0
*POS_FORMAT	=  0
*SCAN_AXIS	=  2Theta/Omega
*MEAS_MODE	=  Continuous Scanning
*TARGET		=  29
*XRAY_CHAR	=  K-ALPHA
*WAVE_LENGTH1	=  1.54059
*WAVE_LENGTH2	=  1.54441
*THICKNESS	=  0, 0.000000
*MU		=  0, 0.000000
*SCAN_MODE	=  2Theta/Omega
*SPEED_DIM	=  sec./step
*XUNIT		=  deg.
*YUNIT		=  counts
*SCALE_MODE	=  1
*REP_COUNT	=  0
*SE_COUNT	=  0
*STD_MATERIAL	=  Unknown, Unknown, 0.000000, 0.000000, 0.000000, 0.000000, 0.000000, 0.000000
*LATT_CONS	=  0, Unknown, Unknown, 0.000000, 0.000000, 0.000000, 0.000000, 0.000000, 0.000000
*SEC_COUNT	=  1
*TSPEC_SIZE	=  0
*EXTRA_SIZE	=  0
*MEMO		=

*BEGIN
*GROUP		=  0
*START		=  20
*STOP		=  80
*STEP		=  0.01
*OFFSET		=  0.000000
*SPEED		=  0.05
*SLIT_SPEC	=  0, 1.000mm, 1, 0.000000
*SLIT_SPEC	=  1, 1.000mm, 1, 0.000000
*SLIT_SPEC	=  2, 1.000mm, 1, 0.000000
*KV		=  40
*MA		=  100
*LOW		=  0.000000
*HIGH		=  0.000000
*CTEMPER	=  0, 0.000000
*CTEMPER	=  1, 0.000000
*CTEMPER	=  2, 0.000000
*PAREX		=  0, 0.000000
*PAREX		=  1, 0.000000
*PAREX		=  2, 0.000000
*PAREX		=  3, 0.000000
*PAREX		=  4, 0.000000
*PAREX		=  5, 0.000000
*PAREX		=  6, 0.000000
*PAREX		=  7, 0.000000
*PAREX		=  8, 0.000000
*PAREX		=  9, 0.000000
*PAREX		=  10, 0.000000
*PAREX		=  11, 0.000000
*PAREX		=  12, 0.000000
*PAREX		=  13, 0.000000
*PAREX		=  14, 0.000000
*PAREX		=  15, 0.000000
*FULL_SCALE	=  1185694.6
*INDEX		=  0, 0, 0
*COUNT		=  6001
87, 96, 91, 94
81, 87, 82, 99
98, 105, 97, 87
94, 89, 103, 100
84, 97, 93, 95
98, 89, 84, 85
97, 84, 95, 92
105, 85, 79, 94
72, 96, 86, 83
88, 92, 84, 89
81, 97, 94, 96
96, 81, 88, 74
86, 76, 70, 85
89, 93, 95, 71
96, 85, 82, 92
107, 75, 68, 90
93, 72, 74, 92
85, 93, 99, 86
94, 76, 80, 85
85, 78, 85, 89
91, 97, 91, 81
95, 95, 99, 87
83, 102, 101, 97
83, 83, 97, 83
104, 101, 97, 116
101, 120, 110, 112
92, 109, 117, 143
116, 117, 113, 113
120, 111, 140, 87
108, 100, 90, 90
102, 98, 104, 113
97, 82, 93, 87
106, 102, 91, 109
87, 100, 91, 99
90, 75, 98, 89
90, 84, 95, 86
106, 83, 84, 95
102, 103, 97, 91
90, 102, 77, 98
91, 89, 100, 79
80, 104, 106, 95
86, 81, 80, 87
93, 111, 73, 91
94, 107, 99, 105
79, 100, 84, 96
100, 105, 95, 91
92, 95, 97, 98
100, 116, 88, 89
94, 86, 71, 80
82, 114, 106, 102
99, 97, 96, 84
95, 94, 105, 95
93, 79, 112, 81
102, 84, 91, 115
103, 110, 94, 95
99, 111, 111, 83
94, 96, 112, 89
92, 101, 96, 95
100, 124, 81, 131
142, 132, 134, 120
158, 126, 141, 145
320, 306, 323, 334
277, 296, 273, 273
320, 333, 349, 326
491, 536, 562, 556
1450, 1508, 1585, 1570
1354, 1303, 1318, 1261
570, 574, 527, 513
219, 203, 189, 196
122, 117, 130, 126
111, 97, 116, 97
94, 98, 88, 106
98, 111, 104, 113
118, 108, 109, 128
126, 110, 138, 128
106, 114, 102, 109
121, 106, 130, 97
107, 103, 86, 109
105, 120, 106, 124
102, 115, 120, 117
122, 106, 127, 121
114, 106, 122, 143
152, 175, 139, 145
234, 323, 320, 378
191, 159, 175, 150
162, 171, 182, 164
169, 195, 181, 169
193, 205, 198, 200
191, 242, 196, 208
213, 227, 229, 223
532, 585, 638, 681
45201.3, 49403.9, 43987.3, 39504.5
678, 624, 531, 510
221, 242, 220, 225
183, 183, 158, 173
163, 136, 159, 113
119, 126, 132, 162
143, 137, 157, 150
142, 169, 152, 157
245, 260, 299, 316
2759, 2903, 3053, 3337
2848, 2597, 2515, 2273
307, 330, 261, 292
144, 149, 123, 136
123, 114, 127, 116
86, 120, 119, 110
89, 114, 125, 106
98, 123, 102, 106
94, 127, 97, 122
100, 94, 94, 97
111, 97, 93, 109
94, 100, 113, 106
108, 113, 86, 105
93, 132, 116, 105
111, 101, 99, 107
95, 101, 99, 125
135, 122, 110, 88
102, 105, 110, 86
81, 104, 114, 91
106, 87, 113, 87
106, 102, 90, 107
118, 100, 93, 81
103, 106, 112, 110
114, 98, 111, 116
85, 114, 105, 92
94, 121, 88, 103
99, 94, 116, 91
119, 106, 118, 107
113, 109, 92, 95
86, 93, 112, 109
112, 92, 107, 91
109, 97, 90, 90
104, 109, 112, 115
105, 105, 80, 101
124, 123, 112, 103
101, 98, 105, 105
116, 118, 102, 98
101, 100, 120, 110
91, 109, 106, 112
105, 113, 102, 95
133, 90, 114, 96
111, 103, 102, 87
112, 107, 113, 115
95, 127, 117, 105
102, 100, 106, 99
102, 120, 103, 128
98, 99, 112, 106
114, 84, 99, 108
117, 111, 106, 105
111, 133, 102, 117
99, 106, 94, 83
91, 80, 98, 109
117, 106, 115, 114
93, 108, 100, 97
104, 103, 101, 89
94, 96, 110, 122
108, 126, 90, 109
107, 110, 92, 82
98, 95, 105, 100
128, 103, 109, 100
90, 107, 86, 92
113, 105, 113, 118
108, 129, 98, 77
112, 121, 124, 122
116, 121, 103, 123
81, 87, 102, 106
106, 96, 109, 105
132, 107, 109, 89
83, 96, 122, 84
118, 96, 103, 96
109, 100, 118, 98
98, 98, 102, 112
112, 112, 102, 110
104, 113, 83, 109
121, 115, 113, 91
108, 94, 118, 108
107, 114, 103, 118
98, 107, 90, 107
96, 110, 99, 112
111, 102, 99, 96
81, 99, 86, 104
100, 96, 128, 104
103, 103, 99, 107
97, 90, 112, 96
110, 91, 104, 110
128, 109, 95, 103
112, 125, 121, 111
103, 111, 106, 120
127, 119, 101, 103
99, 112, 96, 89
99, 123, 93, 116
97, 103, 105, 115
103, 103, 100, 130
114, 115, 85, 109
100, 113, 96, 118
111, 123, 108, 95
129, 98, 119, 111
108, 140, 139, 117
112, 100, 95, 96
113, 118, 102, 104
108, 105, 124, 107
107, 100, 101, 107
79, 122, 104, 108
125, 111, 130, 100
108, 110, 110, 121
125, 129, 102, 111
116, 119, 108, 107
112, 98, 124, 131
130, 108, 95, 105
109, 107, 96, 113
115, 106, 90, 116
106, 99, 110, 111
130, 114, 116, 128
123, 103, 119, 104
106, 108, 122, 116
128, 143, 113, 132
171, 168, 127, 163
165, 124, 107, 113
138, 113, 135, 100
125, 138, 107, 132
121, 122, 127, 139
133, 126, 130, 148
116, 128, 125, 112
145, 122, 145, 153
115, 129, 142, 111
121, 130, 150, 137
127, 128, 134, 132
160, 151, 160, 146
203, 177, 160, 200
271, 307, 284, 316
919, 1012, 1091, 1222
4401, 4573, 4553, 4753
3373, 3182, 3129, 3006
823, 728, 661, 649
217, 219, 185, 220
171, 166, 162, 164
135, 131, 136, 131
142, 119, 138, 143
126, 126, 118, 119
124, 115, 117, 114
110, 125, 145, 137
131, 109, 111, 108
105, 120, 125, 99
117, 109, 114, 121
129, 135, 114, 129
116, 119, 102, 105
101, 99, 107, 98
105, 130, 109, 117
125, 102, 117, 135
126, 136, 105, 117
166
*END

*EOF

File: 1-7_2-Theta_Omega.asc
*TYPE		=  Raw
*CLASS		=  ASCII CLASS
*SAMPLE		=
*COMMENT	=
*FNAME		=  1-7_2-Theta_Omega.asc
*DATE		=  11-Dec-25 15:42

*GROUP_COUNT	=  1
*GONIO		=  SmartLab(In-plane), 0.000000
*ATTACHMENT	=  Z-Phi Stage
*ASC		=  0, 0, 0.000000, 0.000000
*I_MONOCHRO	=  Soller_slit_5.0deg, 0.000000
*FILTER		=  None
*C_MONOCHRO	=  None, 0.000000
*SLIT_NAME	=  0, Incident slit
*SLIT_NAME	=  1, Receiving slit # 1
*SLIT_NAME	=  2, Receiving slit # 2
*COUNTER	=  SC-70, 0
*POS_FORMAT	=  0
*SCAN_AXIS	=  2Theta/Omega
*MEAS_MODE	=  Continuous Scanning
*TARGET		=  29
*XRAY_CHAR	=  K-ALPHA
*WAVE_LENGTH1	=  1.54059
*WAVE_LENGTH2	=  1.54441
*THICKNESS	=  0, 0.000000
*MU		=  0, 0.000000
*SCAN_MODE	=  2Theta/Omega
*SPEED_DIM	=  sec./step
*XUNIT		=  deg.
*YUNIT		=  counts
*SCALE_MODE	=  1
*REP_COUNT	=  0
*SE_COUNT	=  0
*STD_MATERIAL	=  Unknown, Unknown, 0.000000, 0.000000, 0.000000, 0.000000, 0.000000, 0.000000
*LATT_CONS	=  0, Unknown, Unknown, 0.000000, 0.000000, 0.000000, 0.000000, 0.000000, 0.000000
*SEC_COUNT	=  1
*TSPEC_SIZE	=  0
*EXTRA_SIZE	=  0
*MEMO		=

*BEGIN
*GROUP		=  0
*START		=  20
*STOP		=  80
*STEP		=  0.01
*OFFSET		=  0.000000
*SPEED		=  0.05
*SLIT_SPEC	=  0, 1.000mm, 1, 0.000000
*SLIT_SPEC	=  1, 1.000mm, 1, 0.000000
*SLIT_SPEC	=  2, 1.000mm, 1, 0.000000
*KV		=  40
*MA		=  100
*LOW		=  0.000000
*HIGH		=  0.000000
*CTEMPER	=  0, 0.000000
*CTEMPER	=  1, 0.000000
*CTEMPER	=  2, 0.000000
*PAREX		=  0, 0.000000
*PAREX		=  1, 0.000000
*PAREX		=  2, 0.000000
*PAREX		=  3, 0.000000
*PAREX		=  4, 0.000000
*PAREX		=  5, 0.000000
*PAREX		=  6, 0.000000
*PAREX		=  7, 0.000000
*PAREX		=  8, 0.000000
*PAREX		=  9, 0.000000
*PAREX		=  10, 0.000000
*PAREX		=  11, 0.000000
*PAREX		=  12, 0.000000
*PAREX		=  13, 0.000000
*PAREX		=  14, 0.000000
*PAREX		=  15, 0.000000
*FULL_SCALE	=  49728
*INDEX		=  0, 0, 0
*COUNT		=  6001
79, 77, 95, 94
90, 77, 94, 81
94, 99, 76, 92
96, 82, 82, 73
86, 81, 79, 92
83, 89, 78, 71
69, 71, 77, 67
90, 83, 80, 91
91, 92, 91, 92
87, 90, 74, 88
82, 94, 76, 73
94, 73, 83, 81
85, 75, 80, 100
87, 91, 78, 88
87, 89, 98, 74
92, 74, 94, 63
82, 91, 100, 86
80, 93, 89, 90
83, 89, 81, 84
101, 98, 81, 80
95, 87, 80, 94
100, 90, 92, 89
92, 115, 106, 95
109, 102, 106, 103
129, 117, 121, 119
154, 176, 141, 166
236, 246, 220, 246
224, 268, 214, 229
183, 172, 180, 183
115, 112, 120, 113
113, 100, 94, 107
103, 101, 82, 106
83, 94, 78, 78
87, 74, 88, 100
71, 92, 56, 91
61, 67, 100, 72
77, 80, 76, 72
74, 79, 78, 84
86, 88, 89, 94
100, 93, 92, 94
94, 84, 79, 92
101, 78, 82, 83
80, 94, 89, 74
78, 92, 77, 72
106, 57, 91, 77
99, 86, 82, 77
88, 93, 95, 87
79, 87, 88, 71
104, 82, 77, 83
74, 79, 69, 85
95, 69, 85, 75
94, 79, 82, 85
88, 89, 88, 73
90, 94, 101, 77
88, 63, 91, 82
92, 70, 81, 72
85, 85, 80, 84
90, 81, 69, 85
84, 95, 92, 96
81, 81, 78, 82
87, 90, 84, 91
75, 77, 87, 92
95, 76, 77, 93
74, 98, 91, 92
87, 90, 80, 95
95, 114, 84, 112
102, 127, 111, 95
113, 126, 116, 115
110, 109, 117, 110
110, 93, 104, 103
102, 90, 95, 82
79, 104, 93, 78
81, 78, 86, 88
93, 78, 96, 81
101, 81, 85, 91
76, 91, 82, 95
82, 83, 82, 85
86, 93, 99, 93
105, 90, 109, 81
87, 77, 72, 90
80, 98, 87, 84
74, 89, 92, 93
75, 94, 112, 83
84, 89, 79, 99
99, 82, 94, 91
72, 81, 72, 80
97, 85, 95, 92
90, 67, 81, 89
79, 78, 80, 71
96, 83, 81, 94
80, 108, 101, 79
70, 115, 87, 101
82, 85, 91, 114
101, 94, 114, 104
88, 101, 108, 104
110, 97, 113, 100
115, 102, 102, 117
104, 117, 108, 112
116, 126, 137, 112
120, 136, 125, 140
282, 330, 379, 440
1876, 2072, 1927, 1983
541, 476, 433, 388
130, 124, 146, 127
94, 117, 113, 110
98, 93, 98, 98
94, 99, 102, 117
94, 95, 88, 88
112, 96, 91, 102
105, 87, 108, 85
90, 88, 69, 99
97, 95, 90, 102
89, 87, 97, 93
84, 92, 80, 90
100, 87, 86, 99
74, 88, 97, 97
83, 84, 91, 80
90, 93, 92, 101
80, 88, 91, 92
90, 78, 87, 82
86, 70, 86, 109
99, 94, 102, 90
76, 84, 85, 100
91, 79, 92, 96
97, 99, 83, 103
83, 82, 75, 75
86, 89, 78, 79
87, 85, 97, 89
82, 82, 106, 77
92, 88, 95, 84
75, 94, 77, 100
91, 88, 92, 83
83, 90, 100, 84
73, 83, 94, 77
77, 94, 86, 90
85, 97, 78, 96
83, 94, 95, 111
93, 99, 96, 94
99, 105, 104, 78
108, 108, 76, 94
101, 79, 110, 103
98, 94, 111, 97
113, 89, 91, 90
94, 88, 71, 79
97, 91, 133, 98
75, 102, 83, 72
101, 102, 83, 82
80, 76, 82, 79
83, 71, 81, 85
88, 100, 105, 102
94, 85, 83, 82
97, 66, 80, 105
73, 90, 110, 71
90, 103, 95, 93
107, 83, 90, 102
88, 88, 89, 92
101, 91, 91, 92
89, 89, 88, 88
88, 108, 86, 91
87, 89, 90, 103
84, 96, 95, 86
103, 102, 91, 87
82, 90, 70, 95
76, 78, 88, 86
83, 90, 95, 88
86, 111, 91, 96
87, 83, 96, 101
93, 99, 98, 101
100, 77, 103, 101
78, 70, 94, 82
106, 92, 96, 87
109, 102, 80, 100
81, 89, 94, 100
86, 92, 86, 116
81, 102, 81, 106
83, 97, 91, 82
104, 91, 102, 76
69, 91, 95, 99
101, 110, 78, 81
86, 95, 88, 104
107, 90, 108, 85
94, 101, 84, 95
87, 102, 99, 89
91, 96, 86, 87
89, 89, 107, 89
109, 102, 108, 92
98, 115, 110, 121
110, 112, 104, 87
94, 93, 85, 99
93, 105, 97, 103
114, 87, 87, 104
100, 100, 91, 95
92, 102, 88, 94
92, 92, 101, 89
90, 96, 104, 99
70, 85, 85, 83
93, 106, 100, 83
91, 93, 96, 89
70, 110, 87, 102
103, 96, 97, 87
90, 86, 124, 98
95, 96, 96, 102
101, 100, 96, 93
86, 84, 96, 91
86, 96, 89, 89
95, 85, 111, 86
100, 104, 97, 109
85, 108, 88, 100
77, 113, 100, 86
101, 91, 89, 87
94, 92, 99, 82
89, 80, 117, 93
100, 94, 102, 91
86, 114, 88, 84
108, 108, 105, 97
91, 122, 104, 104
102, 97, 110, 98
88, 95, 100, 88
104, 103, 83, 87
92, 89, 98, 101
98, 98, 94, 110
96, 101, 97, 104
100, 104, 96, 104
105, 95, 98, 76
108, 101, 84, 117
106, 98, 93, 99
86, 123, 118, 115
120, 102, 103, 123
103, 115, 109, 117
104, 121, 144, 146
196, 190, 176, 195
969, 984, 1095, 1118
1173, 1115, 1092, 1049
402, 333, 334, 316
150, 139, 132, 112
117, 119, 121, 102
105, 90, 100, 91
104, 96, 115, 99
95, 110, 95, 104
90, 107, 111, 116
122, 115, 95, 86
107, 101, 103, 104
126, 110, 110, 119
95, 99, 113, 102
94, 106, 110, 98
119, 96, 83, 116
110, 91, 95, 104
94, 93, 90, 94
99, 107, 109, 125
109, 104, 98, 102
102
*END

*EOF

File: 1-8_2-Theta_Omega.asc
*TYPE		=  Raw
*CLASS		=  ASCII CLASS
*SAMPLE		=
*COMMENT	=
*FNAME		=  1-8_2-Theta_Omega.asc
*DATE		=  11-Dec-25 15:50

*GROUP_COUNT	=  1
*GONIO		=  SmartLab(In-plane), 0.000000
*ATTACHMENT	=  Z-Phi Stage
*ASC		=  0, 0, 0.000000, 0.000000
*I_MONOCHRO	=  Soller_slit_5.0deg, 0.000000
*FILTER		=  None
*C_MONOCHRO	=  None, 0.000000
*SLIT_NAME	=  0, Incident slit
*SLIT_NAME	=  1, Receiving slit # 1
*SLIT_NAME	=  2, Receiving slit # 2
*COUNTER	=  SC-70, 0
*POS_FORMAT	=  0
*SCAN_AXIS	=  2Theta/Omega
*MEAS_MODE	=  Continuous Scanning
*TARGET		=  29
*XRAY_CHAR	=  K-ALPHA
*WAVE_LENGTH1	=  1.54059
*WAVE_LENGTH2	=  1.54441
*THICKNESS	=  0, 0.000000
*MU		=  0, 0.000000
*SCAN_MODE	=  2Theta/Omega
*SPEED_DIM	=  sec./step
*XUNIT		=  deg.
*YUNIT		=  counts
*SCALE_MODE	=  1
*REP_COUNT	=  0
*SE_COUNT	=  0
*STD_MATERIAL	=  Unknown, Unknown, 0.000000, 0.000000, 0.000000, 0.000000, 0.000000, 0.000000
*LATT_CONS	=  0, Unknown, Unknown, 0.000000, 0.000000, 0.000000, 0.000000, 0.000000, 0.000000
*SEC_COUNT	=  1
*TSPEC_SIZE	=  0
*EXTRA_SIZE	=  0
*MEMO		=

*BEGIN
*GROUP		=  0
*START		=  20
*STOP		=  80
*STEP		=  0.01
*OFFSET		=  0.000000
*SPEED		=  0.05
*SLIT_SPEC	=  0, 1.000mm, 1, 0.000000
*SLIT_SPEC	=  1, 1.000mm, 1, 0.000000
*SLIT_SPEC	=  2, 1.000mm, 1, 0.000000
*KV		=  40
*MA		=  100
*LOW		=  0.000000
*HIGH		=  0.000000
*CTEMPER	=  0, 0.000000
*CTEMPER	=  1, 0.000000
*CTEMPER	=  2, 0.000000
*PAREX		=  0, 0.000000
*PAREX		=  1, 0.000000
*PAREX		=  2, 0.000000
*PAREX		=  3, 0.000000
*PAREX		=  4, 0.000000
*PAREX		=  5, 0.000000
*PAREX		=  6, 0.000000
*PAREX		=  7, 0.000000
*PAREX		=  8, 0.000000
*PAREX		=  9, 0.000000
*PAREX		=  10, 0.000000
*PAREX		=  11, 0.000000
*PAREX		=  12, 0.000000
*PAREX		=  13, 0.000000
*PAREX		=  14, 0.000000
*PAREX		=  15, 0.000000
*FULL_SCALE	=  4567950.5
*INDEX		=  0, 0, 0
*COUNT		=  6001
98, 104, 72, 89
87, 82, 83, 85
91, 96, 104, 84
93, 76, 64, 86
88, 89, 93, 79
102, 89, 89, 95
90, 93, 106, 87
71, 82, 106, 102
99, 104, 101, 91
100, 85, 91, 81
81, 109, 85, 91
95, 79, 93, 101
103, 81, 102, 79
89, 83, 95, 80
95, 90, 83, 94
82, 91, 76, 89
82, 100, 84, 106
87, 103, 92, 106
92, 93, 94, 93
84, 85, 98, 88
91, 82, 95, 99
112, 90, 86, 91
90, 79, 98, 93
80, 87, 83, 90
88, 95, 99, 111
98, 90, 93, 97
102, 82, 91, 85
100, 91, 106, 84
106, 91, 93, 86
99, 90, 92, 97
96, 107, 107, 80
105, 106, 96, 87
99, 95, 105, 117
94, 86, 90, 85
72, 99, 92, 107
104, 89, 93, 86
111, 97, 94, 105
103, 101, 103, 86
91, 94, 104, 101
108, 97, 86, 88
97, 82, 100, 98
100, 91, 87, 108
109, 97, 98, 88
102, 77, 86, 96
90, 92, 88, 89
94, 101, 102, 112
287, 308, 369, 368
544, 449, 434, 379
129, 151, 119, 158
146, 140, 126, 142
141, 142, 164, 119
143, 176, 166, 150
195, 146, 172, 179
211, 215, 210, 214
441, 494, 586, 654
1006, 944, 826, 829
656, 626, 544, 544
625, 616, 597, 589
739, 798, 766, 760
1079, 996, 1108, 1087
4435, 5220, 7076, 10925
185475, 178237, 167731, 157551
4723, 3932, 3117, 2799
821, 838, 748, 778
448, 521, 513, 471
373, 333, 354, 366
204, 220, 241, 211
170, 165, 178, 178
144, 155, 147, 132
120, 139, 115, 143
127, 124, 109, 121
101, 125, 114, 128
133, 136, 126, 127
136, 128, 134, 159
116, 120, 125, 103
114, 101, 125, 99
120, 113, 122, 103
98, 98, 97, 118
119, 95, 103, 106
107, 85, 118, 101
92, 105, 95, 119
120, 108, 108, 97
121, 127, 122, 125
170, 129, 143, 132
96, 103, 115, 131
113, 119, 96, 90
114, 128, 113, 108
112, 131, 129, 129
101, 149, 122, 125
124, 129, 153, 141
1226, 1468, 1586, 1681
1776, 1852, 1987, 1999
153, 175, 161, 187
151, 116, 113, 144
113, 110, 111, 126
109, 122, 117, 117
142, 123, 130, 123
134, 152, 109, 125
144, 152, 148, 144
200, 253, 279, 298
3049, 3228, 3308, 3517
980, 885, 781, 670
230, 215, 191, 201
152, 143, 114, 121
119, 110, 111, 111
114, 127, 111, 128
111, 106, 107, 105
121, 117, 113, 110
89, 111, 125, 129
105, 107, 109, 102
96, 131, 101, 108
103, 97, 106, 104
106, 112, 102, 124
100, 116, 96, 105
112, 118, 109, 107
117, 126, 96, 119
111, 99, 108, 81
101, 122, 116, 121
114, 112, 103, 94
103, 109, 123, 125
95, 111, 81, 109
122, 132, 99, 111
100, 104, 102, 117
85, 117, 136, 94
110, 130, 122, 120
125, 115, 106, 108
98, 105, 137, 122
101, 109, 104, 113
112, 121, 107, 104
117, 102, 119, 115
100, 101, 117, 91
100, 106, 94, 111
94, 111, 118, 112
111, 93, 97, 109
108, 115, 110, 113
132, 108, 114, 117
130, 117, 127, 139
107, 93, 96, 97
116, 116, 113, 113
94, 108, 100, 105
106, 107, 109, 123
111, 100, 109, 121
113, 108, 121, 119
102, 115, 125, 94
105, 119, 126, 102
101, 95, 104, 97
102, 106, 107, 88
112, 124, 125, 109
112, 99, 117, 114
108, 111, 103, 97
104, 115, 116, 94
113, 124, 104, 119
92, 95, 111, 89
119, 102, 106, 110
108, 100, 110, 106
101, 95, 118, 113
106, 127, 101, 111
104, 106, 94, 96
112, 108, 110, 104
108, 134, 106, 96
100, 119, 114, 109
126, 114, 104, 113
111, 110, 117, 116
123, 101, 113, 102
114, 115, 118, 146
118, 110, 123, 106
98, 86, 122, 116
105, 104, 125, 110
101, 104, 102, 125
116, 112, 114, 112
122, 91, 114, 112
135, 104, 97, 93
133, 96, 115, 116
99, 131, 117, 137
118, 96, 91, 109
117, 114, 100, 113
116, 107, 102, 111
135, 110, 121, 114
101, 113, 121, 122
127, 109, 111, 119
115, 95, 124, 118
100, 107, 119, 116
112, 111, 123, 114
124, 124, 115, 113
126, 120, 116, 134
116, 124, 141, 129
147, 124, 120, 115
294, 270, 277, 302
141, 166, 171, 163
119, 142, 116, 123
105, 117, 124, 96
114, 111, 124, 124
107, 126, 116, 109
113, 114, 116, 109
117, 96, 114, 110
117, 123, 131, 121
124, 130, 130, 126
123, 119, 118, 123
101, 123, 114, 94
123, 125, 116, 116
122, 136, 113, 134
116, 124, 109, 144
127, 127, 137, 133
129, 147, 136, 137
126, 142, 144, 130
153, 177, 173, 197
421, 400, 394, 381
179, 170, 170, 146
202, 196, 182, 194
170, 175, 162, 180
156, 171, 170, 170
182, 183, 171, 203
224, 203, 179, 183
201, 189, 187, 176
219, 222, 196, 208
220, 216, 230, 229
256, 246, 274, 241
290, 270, 268, 288
429, 406, 431, 482
1127, 1040, 1107, 1186
36702.7, 39224.3, 41092.1, 44874.5
31005.9, 30025.3, 27503.7, 24748.7
3421, 3036, 2596, 2249
523, 502, 510, 471
311, 345, 338, 334
249, 288, 256, 262
218, 225, 218, 226
186, 208, 191, 196
200, 178, 177, 216
182, 202, 188, 205
361, 398, 445, 506
1404, 1369, 1490, 1481
747, 795, 810, 784
173, 173, 177, 164
168, 140, 166, 162
150, 130, 146, 142
140, 120, 139, 149
124, 130, 141, 136
122, 140, 131, 137
113, 127, 131, 127
123, 131, 139, 125
134, 136, 126, 122
133, 123, 136, 133
133, 141, 136, 130
102, 109, 133, 115
105, 117, 130, 124
118, 131, 116, 117
118, 121, 135, 115
151, 127, 142, 126
110, 132, 116, 136
191
*END

*EOF