Folder: physicsEX_report/XRD-20251211 (part 4)

File: 3-2_2-Theta_Omega.asc
*TYPE		=  Raw
*CLASS		=  ASCII CLASS
*SAMPLE		=
*COMMENT	=
*FNAME		=  3-2_2-Theta_Omega.asc
*DATE		=  11-Dec-25 16:20

*GROUP_COUNT	=  1
*GONIO		=  SmartLab(In-plane), 0.000000
*ATTACHMENT	=  Z-Phi Stage
*ASC		=  0, 0, 0.000000, 0.000000
*I_MONOCHRO	=  Soller_slit_5.0deg, 0.000000
*FILTER		=  None
*C_MONOCHRO	=  None, 0.000000
*SLIT_NAME	=  0, Incident slit
*SLIT_NAME	=  1, Receiving slit # 1
*SLIT_NAME	=  2, Receiving slit # 2
*COUNTER	=  SC-70, 0
*POS_FORMAT	=  0
*SCAN_AXIS	=  2Theta/Omega
*MEAS_MODE	=  Continuous Scanning
*TARGET		=  29
*XRAY_CHAR	=  K-ALPHA
*WAVE_LENGTH1	=  1.54059
*WAVE_LENGTH2	=  1.54441
*THICKNESS	=  0, 0.000000
*MU		=  0, 0.000000
*SCAN_MODE	=  2Theta/Omega
*SPEED_DIM	=  sec./step
*XUNIT		=  deg.
*YUNIT		=  counts
*SCALE_MODE	=  1
*REP_COUNT	=  0
*SE_COUNT	=  0
*STD_MATERIAL	=  Unknown, Unknown, 0.000000, 0.000000, 0.000000, 0.000000, 0.000000, 0.000000
*LATT_CONS	=  0, Unknown, Unknown, 0.000000, 0.000000, 0.000000, 0.000000, 0.000000, 0.000000
*SEC_COUNT	=  1
*TSPEC_SIZE	=  0
*EXTRA_SIZE	=  0
*MEMO		=

*BEGIN
*GROUP		=  0
*START		=  20
*STOP		=  80
*STEP		=  0.01
*OFFSET		=  0.000000
*SPEED		=  0.05
*SLIT_SPEC	=  0, 1.000mm, 1, 0.000000
*SLIT_SPEC	=  1, 1.000mm, 1, 0.000000
*SLIT_SPEC	=  2, 1.000mm, 1, 0.000000
*KV		=  40
*MA		=  100
*LOW		=  0.000000
*HIGH		=  0.000000
*CTEMPER	=  0, 0.000000
*CTEMPER	=  1, 0.000000
*CTEMPER	=  2, 0.000000
*PAREX		=  0, 0.000000
*PAREX		=  1, 0.000000
*PAREX		=  2, 0.000000
*PAREX		=  3, 0.000000
*PAREX		=  4, 0.000000
*PAREX		=  5, 0.000000
*PAREX		=  6, 0.000000
*PAREX		=  7, 0.000000
*PAREX		=  8, 0.000000
*PAREX		=  9, 0.000000
*PAREX		=  10, 0.000000
*PAREX		=  11, 0.000000
*PAREX		=  12, 0.000000
*PAREX		=  13, 0.000000
*PAREX		=  14, 0.000000
*PAREX		=  15, 0.000000
*FULL_SCALE	=  88992
*INDEX		=  0, 0, 0
*COUNT		=  6001
111, 106, 112, 108
114, 117, 105, 97
116, 107, 96, 106
113, 114, 91, 102
100, 105, 112, 120
101, 111, 95, 108
104, 101, 90, 98
96, 108, 116, 112
105, 108, 94, 108
103, 98, 108, 107
111, 116, 121, 105
127, 84, 104, 101
101, 106, 111, 114
107, 113, 108, 101
119, 115, 101, 113
117, 111, 121, 97
109, 117, 100, 120
103, 94, 117, 120
113, 116, 99, 90
98, 124, 101, 97
116, 98, 104, 139
113, 114, 98, 110
123, 89, 111, 105
92, 102, 109, 107
83, 96, 98, 116
109, 108, 113, 115
110, 98, 103, 114
101, 88, 118, 111
111, 106, 128, 99
119, 95, 104, 104
115, 112, 110, 103
109, 123, 97, 103
110, 93, 111, 104
106, 107, 130, 98
97, 114, 117, 126
104, 97, 114, 106
117, 119, 106, 115
115, 105, 113, 108
113, 105, 105, 124
115, 119, 121, 117
116, 117, 115, 110
108, 124, 103, 100
108, 101, 96, 114
91, 96, 94, 128
93, 113, 111, 109
129, 113, 110, 110
108, 94, 111, 112
123, 101, 122, 120
116, 119, 115, 121
116, 94, 101, 104
102, 126, 94, 115
117, 107, 120, 123
108, 117, 116, 118
100, 97, 116, 130
109, 116, 99, 100
118, 114, 106, 126
109, 118, 110, 105
97, 108, 131, 120
115, 93, 119, 96
124, 112, 93, 110
124, 113, 89, 121
98, 113, 125, 113
119, 122, 105, 123
109, 111, 117, 90
107, 128, 116, 127
131, 105, 110, 110
97, 125, 112, 115
130, 103, 118, 115
107, 112, 137, 121
119, 108, 112, 120
114, 141, 100, 112
119, 107, 101, 145
135, 105, 98, 119
106, 122, 109, 115
119, 123, 115, 133
129, 95, 98, 122
106, 123, 124, 91
116, 111, 111, 110
115, 130, 102, 128
144, 132, 114, 107
97, 113, 98, 125
143, 128, 106, 114
133, 113, 109, 118
124, 107, 123, 137
119, 128, 132, 111
118, 110, 110, 111
123, 114, 119, 118
119, 102, 132, 127
125, 100, 126, 127
129, 103, 130, 122
119, 110, 133, 133
117, 128, 125, 124
159, 148, 152, 136
119, 140, 139, 122
142, 138, 147, 125
134, 147, 112, 143
137, 121, 125, 154
132, 116, 141, 155
181, 168, 162, 169
401, 529, 637, 782
3679, 3525, 3446, 3411
609, 527, 484, 437
231, 242, 217, 196
145, 146, 151, 159
131, 149, 112, 137
126, 127, 151, 132
126, 134, 140, 120
130, 123, 125, 109
119, 117, 115, 129
133, 140, 146, 119
122, 137, 121, 132
142, 150, 156, 156
205, 136, 164, 149
245, 248, 223, 232
276, 267, 285, 295
200, 204, 222, 194
166, 161, 155, 184
136, 140, 156, 157
115, 133, 131, 132
117, 121, 117, 137
141, 135, 104, 129
143, 110, 127, 142
116, 104, 132, 125
117, 136, 119, 123
119, 110, 126, 119
125, 141, 114, 133
115, 120, 105, 131
124, 113, 127, 115
114, 126, 133, 113
134, 120, 125, 92
137, 107, 101, 104
111, 118, 109, 114
138, 121, 118, 131
102, 119, 119, 104
119, 120, 145, 127
123, 136, 106, 112
128, 122, 137, 130
141, 118, 135, 128
132, 115, 127, 118
122, 117, 124, 109
106, 130, 96, 122
127, 110, 126, 111
118, 116, 142, 118
126, 116, 137, 120
106, 135, 112, 131
135, 118, 116, 112
120, 131, 122, 125
137, 133, 113, 113
123, 125, 110, 120
123, 128, 125, 119
122, 113, 120, 122
104, 119, 126, 143
123, 120, 123, 108
118, 138, 105, 129
118, 138, 110, 136
110, 124, 114, 125
98, 136, 121, 121
128, 131, 140, 120
133, 127, 143, 110
93, 125, 121, 114
125, 133, 134, 108
122, 109, 126, 134
101, 115, 119, 125
105, 122, 106, 125
124, 127, 115, 114
127, 108, 124, 103
133, 118, 128, 125
118, 117, 128, 98
131, 125, 129, 129
127, 103, 105, 110
130, 109, 151, 112
128, 113, 137, 110
116, 128, 114, 105
116, 121, 127, 104
111, 132, 130, 107
97, 113, 126, 122
132, 121, 125, 110
127, 121, 128, 106
116, 114, 120, 112
102, 110, 123, 136
120, 120, 113, 135
143, 121, 126, 128
124, 110, 120, 123
130, 107, 126, 133
113, 127, 126, 118
143, 124, 152, 122
145, 118, 118, 122
132, 153, 112, 120
128, 104, 125, 109
121, 125, 104, 131
124, 113, 122, 139
114, 136, 123, 122
137, 125, 117, 108
111, 127, 126, 92
119, 126, 120, 126
111, 137, 111, 108
132, 116, 128, 130
115, 114, 108, 131
112, 128, 107, 115
115, 115, 117, 143
116, 112, 109, 124
113, 133, 130, 113
116, 109, 122, 111
135, 115, 124, 119
130, 102, 129, 118
117, 131, 118, 108
100, 120, 138, 111
124, 123, 120, 123
140, 108, 127, 117
121, 122, 114, 107
129, 114, 126, 122
106, 126, 135, 117
140, 131, 109, 121
114, 116, 101, 130
126, 135, 129, 117
105, 116, 131, 123
119, 128, 126, 96
133, 118, 112, 118
111, 120, 112, 139
141, 120, 125, 132
123, 109, 94, 107
129, 124, 107, 134
111, 133, 134, 125
108, 111, 111, 109
134, 140, 145, 112
120, 118, 130, 125
126, 120, 144, 116
114, 132, 122, 130
152, 134, 126, 127
147, 158, 141, 133
315, 354, 334, 351
667, 639, 604, 578
293, 282, 271, 254
118, 112, 146, 129
131, 123, 138, 123
94, 141, 130, 125
119, 120, 140, 144
126, 112, 102, 118
109, 143, 121, 115
137, 124, 109, 126
129, 128, 122, 112
119, 129, 148, 134
140, 117, 128, 111
125, 127, 125, 139
108, 129, 124, 128
138, 125, 106, 133
124, 130, 138, 111
120, 134, 112, 130
129, 123, 116, 132
120, 147, 114, 125
129
*END

*EOF

File: 4-1_2-Theta_Omega.asc
*TYPE		=  Raw
*CLASS		=  ASCII CLASS
*SAMPLE		=
*COMMENT	=
*FNAME		=  4-1_2-Theta_Omega.asc
*DATE		=  11-Dec-25 16:27

*GROUP_COUNT	=  1
*GONIO		=  SmartLab(In-plane), 0.000000
*ATTACHMENT	=  Z-Phi Stage
*ASC		=  0, 0, 0.000000, 0.000000
*I_MONOCHRO	=  Soller_slit_5.0deg, 0.000000
*FILTER		=  None
*C_MONOCHRO	=  None, 0.000000
*SLIT_NAME	=  0, Incident slit
*SLIT_NAME	=  1, Receiving slit # 1
*SLIT_NAME	=  2, Receiving slit # 2
*COUNTER	=  SC-70, 0
*POS_FORMAT	=  0
*SCAN_AXIS	=  2Theta/Omega
*MEAS_MODE	=  Continuous Scanning
*TARGET		=  29
*XRAY_CHAR	=  K-ALPHA
*WAVE_LENGTH1	=  1.54059
*WAVE_LENGTH2	=  1.54441
*THICKNESS	=  0, 0.000000
*MU		=  0, 0.000000
*SCAN_MODE	=  2Theta/Omega
*SPEED_DIM	=  sec./step
*XUNIT		=  deg.
*YUNIT		=  counts
*SCALE_MODE	=  1
*REP_COUNT	=  0
*SE_COUNT	=  0
*STD_MATERIAL	=  Unknown, Unknown, 0.000000, 0.000000, 0.000000, 0.000000, 0.000000, 0.000000
*LATT_CONS	=  0, Unknown, Unknown, 0.000000, 0.000000, 0.000000, 0.000000, 0.000000, 0.000000
*SEC_COUNT	=  1
*TSPEC_SIZE	=  0
*EXTRA_SIZE	=  0
*MEMO		=

*BEGIN
*GROUP		=  0
*START		=  20
*STOP		=  80
*STEP		=  0.01
*OFFSET		=  0.000000
*SPEED		=  0.05
*SLIT_SPEC	=  0, 1.000mm, 1, 0.000000
*SLIT_SPEC	=  1, 1.000mm, 1, 0.000000
*SLIT_SPEC	=  2, 1.000mm, 1, 0.000000
*KV		=  40
*MA		=  100
*LOW		=  0.000000
*HIGH		=  0.000000
*CTEMPER	=  0, 0.000000
*CTEMPER	=  1, 0.000000
*CTEMPER	=  2, 0.000000
*PAREX		=  0, 0.000000
*PAREX		=  1, 0.000000
*PAREX		=  2, 0.000000
*PAREX		=  3, 0.000000
*PAREX		=  4, 0.000000
*PAREX		=  5, 0.000000
*PAREX		=  6, 0.000000
*PAREX		=  7, 0.000000
*PAREX		=  8, 0.000000
*PAREX		=  9, 0.000000
*PAREX		=  10, 0.000000
*PAREX		=  11, 0.000000
*PAREX		=  12, 0.000000
*PAREX		=  13, 0.000000
*PAREX		=  14, 0.000000
*PAREX		=  15, 0.000000
*FULL_SCALE	=  9792
*INDEX		=  0, 0, 0
*COUNT		=  6001
147, 111, 133, 136
137, 121, 145, 120
132, 128, 139, 145
143, 122, 147, 125
126, 143, 142, 133
129, 140, 134, 145
147, 129, 124, 116
111, 136, 130, 137
138, 136, 140, 127
122, 136, 132, 138
102, 134, 134, 149
148, 136, 138, 157
118, 126, 133, 149
136, 114, 140, 156
135, 133, 129, 144
134, 122, 146, 151
118, 138, 158, 132
124, 140, 138, 130
139, 154, 129, 108
150, 141, 137, 124
137, 146, 139, 160
138, 140, 128, 129
133, 118, 129, 139
140, 143, 133, 135
141, 137, 141, 129
138, 126, 130, 123
139, 136, 140, 131
136, 124, 146, 142
124, 127, 126, 137
122, 134, 140, 122
107, 141, 157, 125
147, 143, 142, 130
120, 129, 157, 155
116, 159, 134, 140
147, 138, 116, 142
136, 125, 130, 122
129, 142, 154, 148
111, 133, 132, 122
117, 120, 138, 143
142, 119, 136, 128
128, 116, 130, 131
144, 156, 130, 138
138, 127, 133, 171
144, 118, 136, 153
146, 128, 132, 128
147, 141, 135, 124
118, 126, 137, 135
142, 131, 128, 142
125, 116, 147, 126
128, 136, 122, 135
120, 150, 124, 130
147, 151, 123, 127
158, 148, 137, 134
120, 133, 141, 140
121, 123, 134, 141
138, 128, 137, 131
144, 114, 163, 132
153, 122, 133, 140
143, 128, 136, 121
114, 131, 137, 135
133, 166, 142, 121
142, 127, 128, 168
141, 158, 136, 152
151, 128, 153, 118
124, 164, 147, 144
128, 162, 119, 121
132, 147, 135, 132
144, 162, 122, 126
140, 127, 135, 134
144, 127, 148, 150
139, 147, 125, 136
129, 117, 143, 147
135, 147, 139, 154
142, 161, 115, 143
156, 152, 137, 151
126, 123, 152, 145
140, 134, 167, 161
147, 137, 120, 133
141, 131, 148, 123
150, 153, 140, 125
143, 152, 123, 134
131, 142, 143, 142
142, 168, 148, 148
139, 147, 136, 159
127, 141, 136, 126
139, 163, 127, 146
141, 150, 119, 123
156, 171, 154, 142
133, 141, 128, 127
138, 150, 124, 132
162, 125, 154, 142
134, 151, 166, 143
141, 164, 150, 132
180, 148, 132, 159
150, 160, 140, 157
154, 157, 170, 138
153, 129, 151, 129
149, 157, 124, 155
157, 133, 153, 145
157, 156, 162, 138
184, 185, 184, 221
362, 334, 369, 389
261, 254, 278, 264
194, 199, 186, 145
144, 153, 153, 147
145, 161, 140, 154
149, 168, 142, 151
152, 159, 149, 143
160, 123, 144, 137
155, 147, 147, 158
119, 143, 165, 167
138, 140, 150, 139
152, 149, 142, 132
155, 148, 165, 153
142, 154, 130, 152
158, 146, 153, 135
151, 148, 142, 128
144, 157, 145, 154
152, 158, 153, 147
160, 170, 146, 172
154, 130, 145, 128
128, 153, 147, 133
173, 145, 150, 143
152, 163, 105, 139
151, 150, 163, 143
159, 152, 155, 142
164, 149, 122, 130
145, 167, 176, 131
153, 161, 138, 164
152, 152, 181, 138
145, 167, 147, 149
168, 153, 155, 141
182, 148, 139, 166
152, 152, 147, 134
153, 185, 163, 137
143, 154, 163, 151
140, 142, 164, 174
159, 154, 135, 151
187, 143, 143, 140
147, 140, 160, 152
159, 149, 160, 158
169, 131, 177, 169
145, 162, 163, 138
147, 147, 150, 160
154, 138, 136, 128
157, 143, 141, 161
144, 157, 149, 160
146, 140, 165, 153
152, 165, 166, 169
173, 133, 141, 154
169, 136, 146, 151
155, 161, 129, 153
154, 167, 147, 168
143, 145, 149, 139
128, 165, 168, 157
164, 177, 147, 163
158, 140, 149, 170
171, 144, 169, 154
179, 168, 166, 161
148, 154, 156, 146
133, 166, 156, 169
182, 155, 150, 169
157, 148, 170, 150
166, 162, 143, 141
159, 134, 150, 147
163, 145, 158, 147
153, 169, 140, 137
165, 150, 125, 178
165, 151, 144, 133
166, 167, 155, 177
172, 147, 168, 153
168, 172, 144, 159
163, 159, 150, 168
165, 165, 167, 149
160, 152, 142, 155
146, 163, 176, 169
170, 167, 158, 157
155, 155, 169, 160
168, 173, 184, 138
168, 171, 163, 157
149, 141, 155, 160
166, 151, 153, 151
151, 177, 162, 178
174, 171, 154, 193
174, 207, 185, 160
190, 182, 199, 196
171, 196, 177, 190
179, 173, 177, 182
177, 168, 154, 166
178, 160, 156, 150
158, 156, 149, 180
175, 167, 162, 171
145, 173, 146, 144
155, 155, 167, 132
140, 173, 153, 141
151, 163, 174, 170
184, 153, 160, 158
179, 151, 170, 181
168, 176, 182, 177
168, 176, 148, 186
164, 157, 157, 155
148, 184, 144, 158
150, 151, 139, 164
163, 153, 166, 176
198, 171, 164, 186
179, 166, 172, 177
173, 161, 164, 173
174, 159, 164, 150
168, 160, 166, 151
158, 162, 169, 186
169, 163, 177, 160
150, 166, 163, 157
169, 166, 175, 156
192, 150, 174, 164
165, 172, 179, 174
161, 157, 171, 169
175, 144, 168, 193
183, 167, 174, 159
192, 166, 185, 176
155, 164, 170, 161
170, 175, 186, 157
166, 182, 151, 168
175, 155, 155, 170
175, 168, 189, 167
177, 167, 181, 157
157, 165, 175, 163
172, 155, 162, 174
178, 171, 178, 148
146, 172, 167, 179
174, 171, 189, 163
151, 165, 171, 156
174, 153, 176, 179
188, 158, 180, 164
191, 173, 210, 185
156, 151, 157, 170
162, 200, 167, 164
174, 191, 169, 165
183, 170, 176, 181
167, 161, 165, 153
183, 185, 150, 167
171, 170, 190, 179
166, 149, 194, 196
162, 186, 190, 172
170, 190, 184, 174
147, 171, 182, 190
173, 151, 185, 167
199, 179, 159, 184
192, 170, 175, 209
181, 167, 158, 177
188, 159, 198, 187
162
*END

*EOF