Folder: physicsEX_report/XRD-20251211 (part 3)

File: 2-1_2-Theta_Omega.asc
*TYPE		=  Raw
*CLASS		=  ASCII CLASS
*SAMPLE		=
*COMMENT	=
*FNAME		=  1-9_2-Theta_Omega.asc
*DATE		=  11-Dec-25 15:57

*GROUP_COUNT	=  1
*GONIO		=  SmartLab(In-plane), 0.000000
*ATTACHMENT	=  Z-Phi Stage
*ASC		=  0, 0, 0.000000, 0.000000
*I_MONOCHRO	=  Soller_slit_5.0deg, 0.000000
*FILTER		=  None
*C_MONOCHRO	=  None, 0.000000
*SLIT_NAME	=  0, Incident slit
*SLIT_NAME	=  1, Receiving slit # 1
*SLIT_NAME	=  2, Receiving slit # 2
*COUNTER	=  SC-70, 0
*POS_FORMAT	=  0
*SCAN_AXIS	=  2Theta/Omega
*MEAS_MODE	=  Continuous Scanning
*TARGET		=  29
*XRAY_CHAR	=  K-ALPHA
*WAVE_LENGTH1	=  1.54059
*WAVE_LENGTH2	=  1.54441
*THICKNESS	=  0, 0.000000
*MU		=  0, 0.000000
*SCAN_MODE	=  2Theta/Omega
*SPEED_DIM	=  sec./step
*XUNIT		=  deg.
*YUNIT		=  counts
*SCALE_MODE	=  1
*REP_COUNT	=  0
*SE_COUNT	=  0
*STD_MATERIAL	=  Unknown, Unknown, 0.000000, 0.000000, 0.000000, 0.000000, 0.000000, 0.000000
*LATT_CONS	=  0, Unknown, Unknown, 0.000000, 0.000000, 0.000000, 0.000000, 0.000000, 0.000000
*SEC_COUNT	=  1
*TSPEC_SIZE	=  0
*EXTRA_SIZE	=  0
*MEMO		=

*BEGIN
*GROUP		=  0
*START		=  20
*STOP		=  80
*STEP		=  0.01
*OFFSET		=  0.000000
*SPEED		=  0.05
*SLIT_SPEC	=  0, 1.000mm, 1, 0.000000
*SLIT_SPEC	=  1, 1.000mm, 1, 0.000000
*SLIT_SPEC	=  2, 1.000mm, 1, 0.000000
*KV		=  40
*MA		=  100
*LOW		=  0.000000
*HIGH		=  0.000000
*CTEMPER	=  0, 0.000000
*CTEMPER	=  1, 0.000000
*CTEMPER	=  2, 0.000000
*PAREX		=  0, 0.000000
*PAREX		=  1, 0.000000
*PAREX		=  2, 0.000000
*PAREX		=  3, 0.000000
*PAREX		=  4, 0.000000
*PAREX		=  5, 0.000000
*PAREX		=  6, 0.000000
*PAREX		=  7, 0.000000
*PAREX		=  8, 0.000000
*PAREX		=  9, 0.000000
*PAREX		=  10, 0.000000
*PAREX		=  11, 0.000000
*PAREX		=  12, 0.000000
*PAREX		=  13, 0.000000
*PAREX		=  14, 0.000000
*PAREX		=  15, 0.000000
*FULL_SCALE	=  257352
*INDEX		=  0, 0, 0
*COUNT		=  6001
107, 104, 104, 108
136, 118, 113, 117
111, 115, 126, 114
109, 100, 104, 128
115, 108, 145, 113
117, 115, 107, 139
111, 119, 119, 126
122, 134, 113, 121
102, 126, 105, 95
128, 107, 113, 132
122, 119, 101, 131
110, 110, 112, 111
127, 110, 120, 121
119, 100, 102, 119
111, 111, 125, 124
111, 99, 125, 102
114, 125, 115, 123
125, 109, 116, 99
99, 103, 108, 146
103, 109, 90, 118
114, 102, 117, 121
100, 101, 106, 122
113, 106, 129, 105
111, 92, 115, 105
122, 116, 113, 96
126, 125, 114, 104
125, 115, 106, 129
97, 124, 125, 124
123, 137, 104, 118
133, 129, 95, 114
101, 112, 131, 95
120, 129, 134, 138
102, 120, 104, 106
113, 102, 101, 110
110, 125, 114, 119
119, 104, 124, 104
122, 114, 114, 109
130, 106, 107, 105
98, 107, 115, 95
113, 129, 111, 137
116, 124, 120, 105
106, 138, 117, 114
113, 130, 114, 134
113, 121, 122, 115
124, 111, 115, 117
129, 127, 121, 106
120, 101, 131, 117
113, 126, 113, 99
132, 115, 111, 119
109, 107, 110, 122
112, 97, 123, 103
107, 118, 111, 149
100, 102, 104, 114
127, 105, 102, 120
103, 108, 122, 118
109, 103, 99, 127
114, 109, 116, 120
132, 134, 134, 118
106, 111, 120, 124
122, 140, 121, 116
116, 92, 127, 141
109, 119, 101, 108
105, 121, 139, 99
122, 121, 128, 121
127, 90, 125, 129
124, 119, 116, 113
116, 119, 119, 130
106, 119, 109, 126
109, 123, 124, 91
98, 123, 128, 108
133, 129, 106, 113
113, 109, 110, 106
120, 116, 143, 115
121, 141, 158, 143
120, 123, 133, 114
123, 116, 128, 127
107, 115, 117, 118
111, 110, 130, 131
119, 119, 133, 119
110, 136, 110, 123
113, 116, 114, 118
154, 140, 168, 173
148, 143, 132, 127
153, 146, 161, 167
123, 141, 133, 160
138, 116, 150, 146
126, 122, 128, 117
125, 131, 161, 143
139, 149, 152, 136
202, 227, 246, 216
3580, 4140, 4248, 3932
892, 1117, 1262, 1307
235, 238, 240, 241
169, 188, 192, 168
207, 181, 177, 162
177, 182, 165, 174
171, 156, 172, 181
197, 198, 211, 173
172, 212, 227, 228
792, 994, 1293, 1464
10405, 9959, 9423, 8943
1326, 1240, 1135, 1005
288, 283, 246, 263
170, 183, 187, 154
135, 159, 131, 133
131, 143, 134, 139
131, 123, 144, 118
122, 124, 131, 143
126, 128, 144, 123
131, 118, 112, 128
111, 131, 116, 124
96, 125, 123, 118
145, 119, 138, 140
102, 114, 100, 123
133, 134, 128, 117
129, 136, 139, 127
122, 127, 115, 140
123, 142, 127, 110
128, 110, 122, 124
108, 125, 135, 109
130, 128, 118, 122
132, 115, 127, 129
121, 112, 117, 130
128, 124, 112, 135
115, 119, 114, 125
135, 125, 109, 123
125, 110, 130, 121
134, 127, 126, 148
109, 126, 123, 137
117, 124, 131, 139
124, 134, 116, 121
112, 146, 133, 139
110, 118, 117, 112
127, 132, 125, 128
151, 116, 117, 132
143, 129, 121, 133
116, 133, 125, 145
128, 136, 111, 122
120, 129, 133, 147
121, 125, 146, 142
122, 121, 106, 140
123, 125, 155, 122
108, 123, 138, 129
135, 132, 125, 137
121, 124, 131, 135
130, 105, 117, 121
118, 121, 107, 126
125, 106, 118, 126
126, 115, 138, 145
152, 124, 126, 120
107, 127, 134, 117
129, 115, 113, 127
121, 127, 121, 117
127, 123, 138, 138
139, 128, 111, 121
130, 131, 120, 132
123, 113, 125, 134
111, 131, 109, 120
134, 109, 122, 125
156, 133, 148, 134
136, 139, 138, 143
110, 139, 141, 142
122, 135, 120, 114
118, 101, 119, 142
136, 126, 133, 133
126, 121, 137, 149
116, 128, 119, 118
141, 120, 125, 138
115, 129, 131, 112
114, 126, 128, 107
126, 140, 123, 109
121, 124, 134, 113
113, 112, 123, 110
109, 134, 108, 122
116, 126, 114, 129
125, 118, 123, 117
116, 117, 126, 140
119, 124, 143, 114
107, 124, 137, 142
131, 130, 125, 101
139, 134, 121, 127
120, 130, 113, 131
105, 165, 135, 137
127, 141, 127, 120
126, 152, 122, 145
131, 150, 157, 122
133, 156, 145, 148
145, 130, 144, 122
109, 117, 127, 130
116, 110, 130, 137
112, 110, 136, 128
117, 117, 117, 124
127, 125, 126, 139
105, 126, 122, 89
123, 124, 133, 105
129, 113, 110, 134
124, 135, 131, 124
118, 111, 118, 125
134, 122, 138, 123
108, 110, 121, 138
121, 131, 144, 124
157, 123, 146, 115
117, 134, 128, 145
123, 131, 125, 107
119, 122, 115, 120
135, 112, 137, 118
120, 133, 141, 120
134, 146, 129, 152
140, 127, 134, 119
134, 160, 110, 113
124, 121, 123, 128
128, 133, 157, 119
127, 125, 115, 150
122, 127, 129, 130
134, 132, 114, 141
132, 129, 145, 126
116, 124, 144, 159
111, 109, 111, 127
129, 143, 107, 118
127, 127, 134, 124
106, 128, 140, 119
139, 134, 139, 108
127, 135, 128, 130
140, 138, 114, 135
124, 138, 126, 126
131, 114, 125, 151
137, 123, 131, 133
117, 137, 136, 149
129, 130, 147, 142
158, 171, 159, 169
609, 735, 753, 908
1153, 1205, 1178, 1159
407, 440, 369, 369
165, 133, 151, 148
152, 134, 151, 146
149, 124, 147, 163
131, 140, 117, 138
122, 121, 133, 154
131, 147, 137, 146
135, 118, 124, 135
158, 144, 155, 126
130, 126, 151, 147
102, 129, 140, 133
140, 136, 126, 132
123, 122, 127, 160
142, 122, 125, 127
149, 130, 130, 135
131, 154, 132, 113
126, 106, 132, 110
119, 157, 144, 149
167
*END

*EOF

File: 2-2_2-Theta_Omega.asc
*TYPE		=  Raw
*CLASS		=  ASCII CLASS
*SAMPLE		=
*COMMENT	=
*FNAME		=  2-2_2-Theta_Omega.asc
*DATE		=  11-Dec-25 16:05

*GROUP_COUNT	=  1
*GONIO		=  SmartLab(In-plane), 0.000000
*ATTACHMENT	=  Z-Phi Stage
*ASC		=  0, 0, 0.000000, 0.000000
*I_MONOCHRO	=  Soller_slit_5.0deg, 0.000000
*FILTER		=  None
*C_MONOCHRO	=  None, 0.000000
*SLIT_NAME	=  0, Incident slit
*SLIT_NAME	=  1, Receiving slit # 1
*SLIT_NAME	=  2, Receiving slit # 2
*COUNTER	=  SC-70, 0
*POS_FORMAT	=  0
*SCAN_AXIS	=  2Theta/Omega
*MEAS_MODE	=  Continuous Scanning
*TARGET		=  29
*XRAY_CHAR	=  K-ALPHA
*WAVE_LENGTH1	=  1.54059
*WAVE_LENGTH2	=  1.54441
*THICKNESS	=  0, 0.000000
*MU		=  0, 0.000000
*SCAN_MODE	=  2Theta/Omega
*SPEED_DIM	=  sec./step
*XUNIT		=  deg.
*YUNIT		=  counts
*SCALE_MODE	=  1
*REP_COUNT	=  0
*SE_COUNT	=  0
*STD_MATERIAL	=  Unknown, Unknown, 0.000000, 0.000000, 0.000000, 0.000000, 0.000000, 0.000000
*LATT_CONS	=  0, Unknown, Unknown, 0.000000, 0.000000, 0.000000, 0.000000, 0.000000, 0.000000
*SEC_COUNT	=  1
*TSPEC_SIZE	=  0
*EXTRA_SIZE	=  0
*MEMO		=

*BEGIN
*GROUP		=  0
*START		=  20
*STOP		=  80
*STEP		=  0.01
*OFFSET		=  0.000000
*SPEED		=  0.05
*SLIT_SPEC	=  0, 1.000mm, 1, 0.000000
*SLIT_SPEC	=  1, 1.000mm, 1, 0.000000
*SLIT_SPEC	=  2, 1.000mm, 1, 0.000000
*KV		=  40
*MA		=  100
*LOW		=  0.000000
*HIGH		=  0.000000
*CTEMPER	=  0, 0.000000
*CTEMPER	=  1, 0.000000
*CTEMPER	=  2, 0.000000
*PAREX		=  0, 0.000000
*PAREX		=  1, 0.000000
*PAREX		=  2, 0.000000
*PAREX		=  3, 0.000000
*PAREX		=  4, 0.000000
*PAREX		=  5, 0.000000
*PAREX		=  6, 0.000000
*PAREX		=  7, 0.000000
*PAREX		=  8, 0.000000
*PAREX		=  9, 0.000000
*PAREX		=  10, 0.000000
*PAREX		=  11, 0.000000
*PAREX		=  12, 0.000000
*PAREX		=  13, 0.000000
*PAREX		=  14, 0.000000
*PAREX		=  15, 0.000000
*FULL_SCALE	=  760952
*INDEX		=  0, 0, 0
*COUNT		=  6001
101, 107, 79, 98
117, 108, 111, 121
116, 121, 112, 129
120, 112, 110, 115
114, 101, 92, 134
106, 126, 104, 94
101, 118, 126, 122
125, 80, 110, 118
98, 104, 118, 88
106, 103, 115, 101
109, 108, 91, 110
114, 129, 120, 129
103, 104, 120, 92
112, 111, 111, 101
110, 112, 106, 93
108, 113, 111, 131
111, 122, 119, 110
106, 123, 102, 109
103, 118, 105, 88
110, 99, 124, 123
104, 97, 100, 107
104, 106, 116, 111
112, 87, 97, 108
103, 104, 91, 104
123, 95, 120, 109
96, 85, 111, 103
104, 108, 105, 121
90, 109, 112, 114
102, 122, 107, 102
115, 113, 103, 104
95, 105, 110, 115
96, 115, 99, 100
106, 110, 105, 113
114, 107, 115, 100
109, 125, 96, 97
137, 95, 111, 112
108, 134, 110, 113
103, 106, 102, 114
120, 110, 107, 118
114, 111, 120, 104
107, 121, 107, 116
110, 126, 106, 112
111, 122, 110, 117
111, 108, 98, 103
100, 113, 118, 109
125, 109, 119, 84
105, 117, 94, 115
127, 114, 108, 103
120, 107, 117, 115
85, 99, 99, 92
109, 119, 112, 110
115, 110, 105, 117
97, 107, 102, 114
113, 107, 117, 94
114, 102, 96, 135
115, 106, 113, 123
108, 109, 111, 107
116, 104, 120, 108
104, 106, 128, 109
125, 129, 113, 132
115, 112, 101, 122
96, 123, 113, 105
119, 110, 111, 111
95, 125, 112, 118
115, 109, 117, 117
101, 111, 121, 132
115, 123, 123, 140
114, 105, 98, 115
126, 115, 124, 116
121, 111, 120, 129
111, 109, 111, 116
105, 122, 123, 125
121, 120, 116, 130
237, 255, 289, 306
134, 106, 123, 116
115, 113, 132, 113
134, 135, 105, 122
129, 122, 135, 127
126, 138, 135, 113
120, 125, 133, 131
121, 144, 145, 101
148, 151, 162, 152
157, 158, 148, 143
545, 447, 429, 351
193, 205, 194, 214
151, 165, 187, 166
154, 184, 195, 190
187, 149, 203, 212
188, 186, 199, 194
229, 210, 253, 227
1154, 1098, 1107, 1202
10821, 13547, 14407, 13512
266, 269, 268, 260
212, 189, 182, 173
142, 165, 177, 176
141, 133, 139, 157
168, 143, 158, 134
153, 147, 173, 169
155, 182, 191, 174
549, 608, 672, 830
5275, 5248, 5009, 5054
980, 780, 603, 548
233, 270, 221, 238
149, 157, 150, 146
147, 110, 145, 125
135, 123, 119, 142
116, 130, 111, 139
138, 139, 141, 124
122, 110, 113, 145
106, 121, 123, 135
123, 110, 106, 140
131, 115, 125, 120
131, 113, 123, 133
153, 124, 122, 133
119, 118, 120, 118
113, 129, 115, 136
116, 136, 110, 128
125, 119, 121, 113
113, 134, 142, 120
115, 100, 133, 117
95, 126, 102, 130
128, 143, 116, 117
136, 105, 136, 121
108, 124, 119, 101
121, 130, 121, 119
129, 124, 133, 143
156, 116, 121, 114
130, 126, 133, 135
116, 127, 120, 137
114, 102, 128, 110
134, 107, 116, 124
123, 144, 133, 121
128, 141, 110, 139
128, 120, 132, 129
121, 129, 108, 112
114, 108, 107, 115
130, 121, 138, 118
123, 119, 106, 157
125, 117, 112, 136
126, 118, 113, 150
138, 122, 124, 117
128, 121, 123, 119
138, 103, 133, 120
110, 116, 124, 112
124, 129, 134, 120
116, 129, 129, 118
146, 120, 124, 122
108, 126, 131, 124
112, 129, 113, 129
144, 129, 127, 123
116, 135, 129, 118
122, 106, 138, 122
126, 136, 120, 125
127, 119, 140, 127
106, 99, 118, 106
120, 133, 116, 101
124, 139, 122, 127
152, 149, 108, 133
130, 129, 127, 153
158, 159, 135, 114
120, 132, 143, 134
140, 126, 124, 128
122, 129, 121, 133
116, 138, 118, 134
128, 119, 125, 114
127, 142, 115, 133
117, 131, 110, 130
128, 116, 118, 121
125, 144, 114, 115
120, 104, 108, 125
135, 145, 127, 139
108, 113, 123, 108
137, 131, 136, 126
107, 106, 132, 112
115, 126, 123, 122
118, 92, 114, 112
106, 140, 126, 100
124, 131, 120, 126
132, 142, 116, 116
121, 129, 111, 122
102, 138, 128, 119
129, 138, 119, 129
130, 114, 117, 135
128, 117, 126, 122
119, 150, 127, 133
123, 139, 153, 130
148, 143, 150, 138
145, 132, 133, 120
108, 134, 115, 118
103, 125, 103, 148
119, 132, 145, 135
122, 116, 122, 106
153, 120, 118, 133
127, 104, 114, 112
127, 130, 132, 126
128, 132, 132, 131
107, 127, 125, 123
111, 137, 136, 140
118, 126, 132, 121
133, 128, 130, 113
110, 107, 132, 109
134, 125, 120, 117
126, 124, 125, 141
134, 119, 122, 129
160, 113, 131, 141
121, 116, 135, 123
104, 121, 126, 112
109, 119, 126, 121
125, 97, 99, 112
125, 132, 131, 121
111, 124, 106, 112
115, 126, 116, 130
130, 125, 137, 122
121, 112, 125, 121
104, 135, 122, 116
147, 128, 148, 141
144, 126, 147, 142
140, 132, 125, 111
144, 118, 127, 156
151, 112, 129, 145
125, 117, 135, 122
121, 132, 122, 143
151, 150, 141, 130
126, 126, 124, 132
137, 130, 131, 137
151, 135, 142, 129
141, 129, 123, 124
137, 148, 132, 156
131, 142, 137, 129
174, 180, 165, 162
670, 708, 742, 881
1504, 1486, 1508, 1425
650, 621, 574, 542
152, 136, 135, 153
121, 155, 123, 135
131, 120, 124, 131
127, 123, 117, 132
151, 126, 125, 123
146, 118, 151, 119
131, 116, 138, 139
130, 117, 143, 137
135, 139, 143, 128
146, 128, 123, 125
122, 125, 134, 108
129, 129, 135, 126
126, 135, 152, 122
123, 129, 129, 119
140, 139, 122, 133
148, 129, 131, 116
138, 139, 165, 146
410
*END

*EOF

File: 3-1_2-Theta_Omega.asc
*TYPE		=  Raw
*CLASS		=  ASCII CLASS
*SAMPLE		=
*COMMENT	=
*FNAME		=  3-1_2-Theta_Omega.asc
*DATE		=  11-Dec-25 16:12

*GROUP_COUNT	=  1
*GONIO		=  SmartLab(In-plane), 0.000000
*ATTACHMENT	=  Z-Phi Stage
*ASC		=  0, 0, 0.000000, 0.000000
*I_MONOCHRO	=  Soller_slit_5.0deg, 0.000000
*FILTER		=  None
*C_MONOCHRO	=  None, 0.000000
*SLIT_NAME	=  0, Incident slit
*SLIT_NAME	=  1, Receiving slit # 1
*SLIT_NAME	=  2, Receiving slit # 2
*COUNTER	=  SC-70, 0
*POS_FORMAT	=  0
*SCAN_AXIS	=  2Theta/Omega
*MEAS_MODE	=  Continuous Scanning
*TARGET		=  29
*XRAY_CHAR	=  K-ALPHA
*WAVE_LENGTH1	=  1.54059
*WAVE_LENGTH2	=  1.54441
*THICKNESS	=  0, 0.000000
*MU		=  0, 0.000000
*SCAN_MODE	=  2Theta/Omega
*SPEED_DIM	=  sec./step
*XUNIT		=  deg.
*YUNIT		=  counts
*SCALE_MODE	=  1
*REP_COUNT	=  0
*SE_COUNT	=  0
*STD_MATERIAL	=  Unknown, Unknown, 0.000000, 0.000000, 0.000000, 0.000000, 0.000000, 0.000000
*LATT_CONS	=  0, Unknown, Unknown, 0.000000, 0.000000, 0.000000, 0.000000, 0.000000, 0.000000
*SEC_COUNT	=  1
*TSPEC_SIZE	=  0
*EXTRA_SIZE	=  0
*MEMO		=

*BEGIN
*GROUP		=  0
*START		=  20
*STOP		=  80
*STEP		=  0.01
*OFFSET		=  0.000000
*SPEED		=  0.05
*SLIT_SPEC	=  0, 1.000mm, 1, 0.000000
*SLIT_SPEC	=  1, 1.000mm, 1, 0.000000
*SLIT_SPEC	=  2, 1.000mm, 1, 0.000000
*KV		=  40
*MA		=  100
*LOW		=  0.000000
*HIGH		=  0.000000
*CTEMPER	=  0, 0.000000
*CTEMPER	=  1, 0.000000
*CTEMPER	=  2, 0.000000
*PAREX		=  0, 0.000000
*PAREX		=  1, 0.000000
*PAREX		=  2, 0.000000
*PAREX		=  3, 0.000000
*PAREX		=  4, 0.000000
*PAREX		=  5, 0.000000
*PAREX		=  6, 0.000000
*PAREX		=  7, 0.000000
*PAREX		=  8, 0.000000
*PAREX		=  9, 0.000000
*PAREX		=  10, 0.000000
*PAREX		=  11, 0.000000
*PAREX		=  12, 0.000000
*PAREX		=  13, 0.000000
*PAREX		=  14, 0.000000
*PAREX		=  15, 0.000000
*FULL_SCALE	=  190440
*INDEX		=  0, 0, 0
*COUNT		=  6001
95, 96, 87, 95
107, 98, 118, 99
99, 98, 87, 93
88, 91, 92, 112
99, 89, 88, 84
93, 89, 84, 102
113, 73, 84, 86
98, 96, 90, 87
83, 90, 96, 97
89, 97, 81, 77
111, 97, 87, 107
104, 79, 106, 86
99, 103, 95, 114
99, 96, 92, 101
105, 83, 102, 99
107, 99, 119, 98
81, 101, 87, 91
92, 95, 92, 103
84, 93, 102, 108
94, 90, 80, 107
116, 104, 98, 111
86, 106, 107, 118
87, 78, 104, 93
102, 87, 93, 105
89, 77, 97, 93
91, 76, 84, 104
104, 107, 100, 96
75, 96, 90, 87
118, 99, 88, 93
72, 102, 82, 89
97, 105, 108, 100
89, 90, 95, 94
96, 98, 86, 95
88, 87, 102, 105
97, 116, 93, 89
97, 115, 93, 93
110, 107, 103, 85
103, 105, 89, 111
87, 104, 101, 91
109, 100, 110, 114
123, 107, 88, 111
96, 87, 111, 106
110, 78, 92, 101
104, 87, 82, 105
88, 95, 96, 97
99, 96, 116, 101
98, 87, 102, 89
111, 94, 94, 95
95, 92, 94, 102
112, 91, 107, 87
99, 102, 127, 99
110, 104, 99, 103
112, 99, 108, 106
109, 94, 96, 99
111, 93, 116, 92
97, 110, 104, 88
103, 98, 115, 91
90, 110, 120, 99
102, 113, 122, 100
88, 94, 115, 102
112, 101, 94, 101
110, 96, 93, 106
110, 97, 105, 97
111, 119, 121, 108
119, 129, 146, 141
229, 254, 205, 196
152, 128, 124, 116
121, 115, 108, 107
96, 105, 103, 102
124, 116, 117, 97
86, 123, 105, 91
108, 107, 102, 124
128, 101, 126, 123
97, 110, 130, 83
97, 104, 116, 87
104, 94, 101, 118
105, 110, 95, 99
116, 116, 138, 105
91, 105, 109, 107
103, 120, 108, 105
120, 107, 120, 113
123, 143, 146, 144
110, 122, 138, 93
95, 134, 103, 96
104, 117, 112, 105
111, 96, 107, 99
130, 101, 122, 114
126, 99, 116, 99
77, 95, 120, 130
105, 103, 110, 123
125, 120, 131, 107
122, 118, 113, 132
185, 174, 198, 186
155, 124, 129, 151
141, 130, 125, 144
129, 127, 129, 150
121, 161, 157, 146
157, 147, 158, 148
174, 156, 158, 174
497, 567, 668, 779
7695, 7800, 7935, 7899
590, 537, 504, 430
208, 234, 221, 214
140, 166, 162, 128
122, 125, 120, 113
113, 135, 130, 141
117, 114, 107, 122
124, 89, 113, 102
119, 120, 116, 121
102, 101, 105, 95
122, 90, 127, 110
96, 103, 111, 106
115, 94, 108, 107
140, 118, 114, 93
115, 106, 87, 103
122, 114, 92, 108
115, 107, 116, 99
137, 95, 126, 129
121, 105, 121, 112
95, 122, 110, 111
101, 96, 97, 121
108, 114, 102, 125
106, 116, 121, 110
136, 108, 122, 115
91, 125, 136, 108
118, 118, 107, 108
105, 116, 119, 110
120, 123, 112, 98
90, 120, 122, 97
106, 96, 116, 122
102, 136, 116, 115
93, 116, 123, 110
111, 106, 106, 110
126, 111, 117, 123
121, 105, 105, 106
133, 111, 102, 118
109, 116, 114, 118
100, 127, 111, 104
117, 129, 107, 102
118, 101, 105, 116
115, 107, 119, 108
116, 116, 122, 98
114, 109, 96, 117
108, 92, 117, 110
118, 122, 131, 94
116, 119, 109, 112
91, 104, 115, 119
122, 105, 102, 103
120, 101, 107, 100
109, 121, 110, 112
112, 104, 120, 116
114, 110, 96, 120
120, 115, 109, 108
103, 118, 104, 104
105, 129, 96, 112
102, 119, 101, 116
113, 112, 114, 108
102, 114, 106, 113
105, 107, 86, 122
109, 99, 137, 112
118, 131, 124, 98
105, 107, 101, 112
114, 113, 113, 127
113, 119, 124, 97
110, 106, 106, 115
132, 113, 101, 113
114, 123, 103, 125
144, 123, 112, 104
118, 106, 108, 99
117, 108, 123, 119
115, 98, 105, 107
104, 104, 114, 89
115, 98, 124, 131
93, 98, 94, 112
111, 121, 115, 108
99, 121, 121, 101
112, 111, 113, 117
125, 116, 107, 110
116, 116, 135, 104
88, 85, 124, 113
102, 110, 121, 122
120, 116, 116, 110
123, 114, 115, 107
117, 120, 117, 134
132, 118, 119, 114
121, 124, 110, 134
112, 139, 141, 122
138, 105, 114, 92
99, 112, 105, 112
109, 102, 108, 102
97, 110, 124, 105
125, 117, 111, 106
95, 104, 123, 101
131, 108, 103, 133
107, 115, 116, 117
126, 104, 107, 109
118, 153, 124, 130
123, 119, 108, 115
101, 116, 121, 126
99, 117, 94, 115
114, 124, 91, 102
111, 121, 100, 99
101, 101, 101, 96
105, 125, 98, 127
108, 108, 120, 109
102, 107, 112, 121
124, 108, 114, 94
108, 114, 114, 126
107, 113, 132, 104
100, 112, 116, 97
105, 116, 106, 103
100, 99, 131, 126
106, 92, 113, 115
99, 117, 122, 114
128, 123, 110, 122
128, 134, 116, 119
122, 123, 110, 113
111, 120, 116, 111
109, 126, 109, 112
112, 124, 126, 125
113, 117, 108, 108
111, 132, 112, 125
116, 113, 134, 111
123, 103, 121, 106
129, 132, 114, 135
120, 142, 128, 112
140, 122, 110, 135
128, 111, 135, 137
154, 143, 137, 173
187, 176, 208, 188
841, 974, 1051, 1160
1699, 1575, 1577, 1447
666, 549, 501, 422
159, 154, 163, 158
127, 133, 121, 131
126, 134, 124, 116
131, 123, 117, 115
112, 136, 110, 127
132, 124, 140, 110
129, 135, 126, 135
126, 136, 132, 123
122, 134, 120, 126
108, 124, 124, 100
119, 111, 118, 104
120, 124, 131, 120
108, 98, 119, 119
117, 137, 123, 118
120, 131, 122, 120
115, 111, 127, 86
119, 101, 136, 112
118
*END

*EOF