Folder: physicsEX_report/XRD-20251211

File: 1-1_2-Theta_Omega.asc
*TYPE		=  Raw
*CLASS		=  ASCII CLASS
*SAMPLE		=
*COMMENT	=
*FNAME		=  1-1_2-Theta_Omega.asc
*DATE		=  11-Dec-25 14:53

*GROUP_COUNT	=  1
*GONIO		=  SmartLab(In-plane), 0.000000
*ATTACHMENT	=  Z-Phi Stage
*ASC		=  0, 0, 0.000000, 0.000000
*I_MONOCHRO	=  Soller_slit_5.0deg, 0.000000
*FILTER		=  None
*C_MONOCHRO	=  None, 0.000000
*SLIT_NAME	=  0, Incident slit
*SLIT_NAME	=  1, Receiving slit # 1
*SLIT_NAME	=  2, Receiving slit # 2
*COUNTER	=  SC-70, 0
*POS_FORMAT	=  0
*SCAN_AXIS	=  2Theta/Omega
*MEAS_MODE	=  Continuous Scanning
*TARGET		=  29
*XRAY_CHAR	=  K-ALPHA
*WAVE_LENGTH1	=  1.54059
*WAVE_LENGTH2	=  1.54441
*THICKNESS	=  0, 0.000000
*MU		=  0, 0.000000
*SCAN_MODE	=  2Theta/Omega
*SPEED_DIM	=  sec./step
*XUNIT		=  deg.
*YUNIT		=  counts
*SCALE_MODE	=  1
*REP_COUNT	=  0
*SE_COUNT	=  0
*STD_MATERIAL	=  Unknown, Unknown, 0.000000, 0.000000, 0.000000, 0.000000, 0.000000, 0.000000
*LATT_CONS	=  0, Unknown, Unknown, 0.000000, 0.000000, 0.000000, 0.000000, 0.000000, 0.000000
*SEC_COUNT	=  1
*TSPEC_SIZE	=  0
*EXTRA_SIZE	=  0
*MEMO		=

*BEGIN
*GROUP		=  0
*START		=  20
*STOP		=  80
*STEP		=  0.01
*OFFSET		=  0.000000
*SPEED		=  0.05
*SLIT_SPEC	=  0, 1.000mm, 1, 0.000000
*SLIT_SPEC	=  1, 1.000mm, 1, 0.000000
*SLIT_SPEC	=  2, 1.000mm, 1, 0.000000
*KV		=  40
*MA		=  100
*LOW		=  0.000000
*HIGH		=  0.000000
*CTEMPER	=  0, 0.000000
*CTEMPER	=  1, 0.000000
*CTEMPER	=  2, 0.000000
*PAREX		=  0, 0.000000
*PAREX		=  1, 0.000000
*PAREX		=  2, 0.000000
*PAREX		=  3, 0.000000
*PAREX		=  4, 0.000000
*PAREX		=  5, 0.000000
*PAREX		=  6, 0.000000
*PAREX		=  7, 0.000000
*PAREX		=  8, 0.000000
*PAREX		=  9, 0.000000
*PAREX		=  10, 0.000000
*PAREX		=  11, 0.000000
*PAREX		=  12, 0.000000
*PAREX		=  13, 0.000000
*PAREX		=  14, 0.000000
*PAREX		=  15, 0.000000
*FULL_SCALE	=  436968
*INDEX		=  0, 0, 0
*COUNT		=  6001
103, 99, 99, 105
102, 103, 99, 100
92, 99, 109, 111
116, 101, 124, 107
101, 102, 97, 126
105, 86, 101, 94
113, 109, 102, 81
91, 91, 130, 105
120, 93, 95, 98
96, 102, 107, 91
102, 100, 97, 112
82, 102, 107, 91
88, 119, 102, 94
91, 95, 102, 87
96, 99, 98, 111
101, 105, 104, 94
101, 94, 120, 87
114, 125, 112, 109
107, 112, 95, 102
124, 104, 108, 112
123, 104, 109, 100
97, 103, 105, 108
119, 97, 112, 125
118, 120, 113, 109
105, 116, 136, 131
98, 117, 114, 116
99, 121, 105, 107
108, 102, 116, 126
114, 117, 112, 103
114, 114, 96, 100
105, 131, 93, 94
105, 123, 104, 103
103, 112, 89, 117
102, 125, 86, 116
103, 96, 95, 105
121, 96, 97, 102
117, 106, 98, 121
101, 105, 108, 112
97, 111, 116, 101
109, 97, 97, 109
109, 104, 105, 115
105, 99, 117, 127
115, 110, 88, 105
104, 104, 123, 92
92, 98, 116, 111
112, 93, 110, 107
107, 135, 98, 113
123, 107, 108, 128
110, 112, 130, 110
139, 97, 111, 112
124, 119, 98, 112
106, 110, 102, 111
106, 119, 130, 117
124, 109, 132, 116
137, 130, 159, 129
137, 140, 156, 98
148, 150, 159, 147
144, 160, 145, 174
210, 201, 187, 190
280, 304, 282, 315
870, 892, 929, 1051
2331, 2336, 2302, 2270
1390, 1307, 1204, 1256
802, 744, 742, 767
602, 583, 537, 523
346, 337, 347, 326
238, 210, 200, 202
164, 171, 179, 171
144, 142, 145, 143
119, 142, 142, 121
144, 133, 138, 137
123, 116, 121, 123
128, 111, 107, 110
118, 123, 117, 126
113, 121, 110, 109
98, 98, 141, 113
106, 117, 123, 121
98, 94, 136, 115
120, 129, 98, 111
126, 99, 118, 118
130, 137, 119, 137
205, 186, 180, 198
142, 146, 135, 136
114, 135, 121, 132
135, 150, 137, 121
131, 122, 127, 126
140, 131, 115, 124
115, 134, 124, 125
135, 130, 131, 137
142, 147, 148, 157
270, 299, 354, 344
280, 288, 287, 313
206, 224, 219, 218
218, 212, 195, 217
219, 205, 223, 212
226, 188, 205, 204
236, 232, 237, 231
279, 281, 291, 334
560, 551, 580, 677
9844, 10608, 11501, 12503
11856, 11028, 10098, 9149
727, 714, 677, 676
334, 373, 322, 358
191, 202, 217, 175
162, 182, 163, 179
145, 141, 134, 155
128, 156, 147, 148
145, 152, 153, 138
122, 129, 144, 125
137, 138, 136, 123
147, 139, 118, 127
140, 115, 139, 145
134, 145, 143, 140
115, 139, 142, 133
133, 135, 140, 124
136, 136, 138, 129
122, 114, 125, 134
138, 121, 119, 117
134, 129, 137, 117
132, 131, 120, 117
125, 151, 134, 130
123, 145, 131, 122
138, 123, 111, 140
128, 109, 129, 142
139, 130, 133, 134
118, 125, 146, 134
135, 134, 117, 110
124, 141, 126, 122
115, 129, 117, 126
128, 143, 136, 109
128, 142, 121, 117
134, 139, 113, 122
119, 130, 118, 143
148, 135, 128, 128
116, 127, 139, 121
148, 121, 122, 131
148, 131, 134, 130
116, 137, 139, 146
142, 131, 119, 147
128, 130, 131, 142
121, 117, 115, 129
120, 116, 141, 129
130, 117, 128, 131
137, 141, 133, 123
129, 133, 113, 131
111, 126, 128, 120
118, 133, 129, 127
140, 134, 143, 123
120, 145, 127, 121
134, 119, 121, 141
152, 136, 139, 148
115, 134, 130, 135
128, 131, 129, 131
137, 143, 136, 132
147, 129, 149, 132
120, 136, 144, 131
129, 140, 138, 137
125, 146, 119, 150
146, 138, 133, 116
126, 129, 139, 131
139, 146, 159, 132
123, 111, 131, 130
128, 140, 134, 146
132, 129, 136, 134
129, 144, 134, 147
134, 126, 154, 139
131, 122, 127, 130
174, 146, 125, 129
138, 137, 142, 145
145, 158, 154, 136
139, 151, 125, 142
136, 127, 143, 125
124, 139, 149, 124
131, 140, 127, 129
141, 143, 129, 164
133, 139, 149, 138
126, 138, 133, 144
131, 140, 120, 123
130, 121, 132, 136
137, 154, 133, 119
138, 141, 137, 123
137, 151, 152, 135
149, 144, 151, 138
139, 118, 143, 138
146, 154, 139, 130
158, 183, 172, 158
181, 150, 151, 145
160, 148, 153, 147
140, 117, 135, 140
126, 142, 143, 129
144, 150, 134, 135
147, 157, 172, 133
131, 150, 134, 133
128, 138, 153, 159
135, 165, 144, 145
128, 123, 135, 158
157, 136, 146, 148
155, 146, 142, 148
150, 153, 124, 143
138, 135, 144, 139
126, 156, 153, 152
142, 157, 160, 150
148, 127, 131, 136
154, 147, 156, 149
130, 157, 138, 146
118, 150, 159, 161
141, 149, 150, 132
131, 143, 135, 132
152, 142, 156, 145
147, 150, 151, 139
142, 139, 133, 156
142, 127, 153, 157
157, 152, 161, 143
148, 161, 133, 159
160, 156, 151, 149
157, 162, 178, 160
133, 174, 156, 147
149, 158, 147, 150
192, 150, 155, 137
170, 154, 167, 156
180, 166, 180, 172
216, 226, 200, 225
185, 196, 192, 181
156, 176, 200, 188
174, 179, 187, 168
147, 157, 175, 169
183, 161, 165, 188
164, 161, 170, 189
202, 199, 210, 199
318, 274, 342, 365
1148, 1143, 1144, 1142
951, 912, 893, 867
311, 318, 313, 318
189, 202, 221, 171
184, 150, 151, 165
131, 165, 167, 151
157, 146, 148, 168
167, 177, 160, 166
164, 147, 161, 159
170, 158, 149, 147
139, 160, 162, 152
119, 165, 163, 161
166, 151, 156, 145
126, 150, 143, 154
152, 162, 149, 181
141, 167, 146, 136
171, 146, 142, 150
163, 179, 148, 138
161, 146, 145, 144
161, 160, 166, 153
185
*END

*EOF

File: 1-2_2-Theta_Omega.asc
*TYPE		=  Raw
*CLASS		=  ASCII CLASS
*SAMPLE		=
*COMMENT	=
*FNAME		=  1-2_2-Theta_Omega.asc
*DATE		=  11-Dec-25 15:02

*GROUP_COUNT	=  1
*GONIO		=  SmartLab(In-plane), 0.000000
*ATTACHMENT	=  Z-Phi Stage
*ASC		=  0, 0, 0.000000, 0.000000
*I_MONOCHRO	=  Soller_slit_5.0deg, 0.000000
*FILTER		=  None
*C_MONOCHRO	=  None, 0.000000
*SLIT_NAME	=  0, Incident slit
*SLIT_NAME	=  1, Receiving slit # 1
*SLIT_NAME	=  2, Receiving slit # 2
*COUNTER	=  SC-70, 0
*POS_FORMAT	=  0
*SCAN_AXIS	=  2Theta/Omega
*MEAS_MODE	=  Continuous Scanning
*TARGET		=  29
*XRAY_CHAR	=  K-ALPHA
*WAVE_LENGTH1	=  1.54059
*WAVE_LENGTH2	=  1.54441
*THICKNESS	=  0, 0.000000
*MU		=  0, 0.000000
*SCAN_MODE	=  2Theta/Omega
*SPEED_DIM	=  sec./step
*XUNIT		=  deg.
*YUNIT		=  counts
*SCALE_MODE	=  1
*REP_COUNT	=  0
*SE_COUNT	=  0
*STD_MATERIAL	=  Unknown, Unknown, 0.000000, 0.000000, 0.000000, 0.000000, 0.000000, 0.000000
*LATT_CONS	=  0, Unknown, Unknown, 0.000000, 0.000000, 0.000000, 0.000000, 0.000000, 0.000000
*SEC_COUNT	=  1
*TSPEC_SIZE	=  0
*EXTRA_SIZE	=  0
*MEMO		=

*BEGIN
*GROUP		=  0
*START		=  20
*STOP		=  80
*STEP		=  0.01
*OFFSET		=  0.000000
*SPEED		=  0.05
*SLIT_SPEC	=  0, 1.000mm, 1, 0.000000
*SLIT_SPEC	=  1, 1.000mm, 1, 0.000000
*SLIT_SPEC	=  2, 1.000mm, 1, 0.000000
*KV		=  40
*MA		=  100
*LOW		=  0.000000
*HIGH		=  0.000000
*CTEMPER	=  0, 0.000000
*CTEMPER	=  1, 0.000000
*CTEMPER	=  2, 0.000000
*PAREX		=  0, 0.000000
*PAREX		=  1, 0.000000
*PAREX		=  2, 0.000000
*PAREX		=  3, 0.000000
*PAREX		=  4, 0.000000
*PAREX		=  5, 0.000000
*PAREX		=  6, 0.000000
*PAREX		=  7, 0.000000
*PAREX		=  8, 0.000000
*PAREX		=  9, 0.000000
*PAREX		=  10, 0.000000
*PAREX		=  11, 0.000000
*PAREX		=  12, 0.000000
*PAREX		=  13, 0.000000
*PAREX		=  14, 0.000000
*PAREX		=  15, 0.000000
*FULL_SCALE	=  19513530
*INDEX		=  0, 0, 0
*COUNT		=  6001
88, 91, 97, 79
102, 82, 105, 82
99, 92, 108, 125
110, 91, 95, 72
79, 86, 79, 77
96, 80, 91, 104
89, 82, 84, 91
88, 86, 81, 70
77, 97, 89, 96
102, 101, 70, 83
91, 100, 82, 102
85, 76, 90, 101
79, 85, 90, 89
81, 82, 79, 94
97, 73, 90, 103
88, 96, 92, 95
98, 74, 87, 76
87, 93, 104, 63
94, 95, 90, 83
86, 82, 70, 87
99, 81, 99, 91
88, 90, 103, 85
109, 94, 82, 86
86, 80, 95, 89
94, 94, 88, 80
82, 83, 79, 87
82, 99, 93, 83
86, 81, 98, 85
98, 85, 89, 91
83, 113, 99, 98
83, 90, 105, 98
75, 94, 95, 91
91, 100, 92, 102
84, 90, 99, 80
96, 103, 104, 101
88, 93, 103, 108
122, 122, 125, 121
97, 101, 99, 86
81, 116, 108, 113
104, 97, 88, 109
94, 104, 91, 96
85, 106, 96, 106
83, 101, 90, 81
102, 103, 95, 101
93, 130, 94, 98
107, 101, 141, 123
344, 365, 465, 590
1525, 1291, 1136, 920
242, 220, 214, 210
222, 247, 201, 210
241, 229, 245, 233
273, 265, 323, 277
357, 331, 392, 333
529, 503, 523, 536
1221, 1321, 1597, 1817
3747, 3280, 3034, 2795
2249, 2035, 2023, 2030
2096, 2082, 2076, 2107
2586, 2697, 2594, 2646
3508, 3356, 3516, 3616
11421, 13012, 15407, 17936
813064, 781965, 748577, 715050
17604.2, 14942.6, 11673.9, 10518
2776, 2658, 2499, 2542
1387, 1359, 1324, 1325
896, 912, 852, 908
574, 617, 582, 567
394, 380, 356, 324
220, 254, 230, 216
191, 182, 187, 173
166, 153, 157, 155
130, 140, 126, 115
123, 154, 136, 160
233, 267, 303, 332
122, 122, 120, 108
113, 108, 127, 133
118, 129, 136, 102
117, 121, 114, 97
92, 112, 101, 113
143, 98, 111, 108
119, 122, 118, 106
111, 130, 125, 117
158, 179, 169, 134
365, 391, 330, 307
161, 179, 185, 199
148, 138, 165, 165
168, 194, 177, 182
180, 205, 171, 179
214, 207, 212, 231
230, 274, 236, 262
928, 967, 1059, 1215
19005.1, 20125.8, 22554, 21339.9
356, 333, 354, 298
196, 191, 197, 212
163, 171, 147, 144
157, 149, 131, 137
136, 155, 146, 136
154, 144, 153, 129
152, 159, 170, 168
269, 264, 282, 340
3581, 3722, 3999, 4208
3009, 2589, 2554, 2236
235, 256, 216, 187
119, 131, 139, 126
120, 102, 116, 125
96, 125, 115, 119
110, 124, 104, 112
115, 123, 107, 113
103, 107, 122, 107
105, 122, 100, 100
120, 107, 104, 109
107, 109, 107, 114
110, 111, 93, 95
126, 89, 108, 103
104, 86, 117, 126
88, 108, 94, 115
101, 106, 106, 112
91, 90, 109, 122
115, 101, 96, 117
117, 127, 97, 96
117, 107, 118, 102
112, 104, 105, 89
104, 117, 98, 114
117, 92, 100, 103
112, 96, 91, 86
108, 112, 100, 95
111, 112, 107, 117
92, 88, 107, 107
96, 90, 114, 105
100, 112, 115, 105
119, 111, 109, 104
94, 110, 115, 113
97, 95, 95, 117
121, 107, 105, 109
119, 99, 96, 84
109, 108, 93, 97
115, 105, 102, 100
125, 142, 143, 139
134, 123, 119, 137
98, 101, 113, 99
115, 87, 89, 111
139, 94, 111, 119
106, 132, 98, 113
99, 109, 108, 119
97, 104, 91, 102
118, 111, 117, 99
107, 101, 96, 118
98, 111, 108, 110
111, 114, 98, 101
89, 95, 101, 109
97, 117, 101, 89
114, 123, 111, 114
121, 93, 103, 98
94, 112, 101, 98
98, 80, 93, 109
112, 97, 108, 107
92, 108, 121, 97
108, 105, 103, 124
119, 103, 108, 107
125, 96, 100, 108
96, 120, 112, 86
106, 91, 109, 109
106, 114, 114, 119
120, 98, 97, 101
111, 106, 115, 112
109, 119, 111, 103
102, 116, 103, 99
108, 109, 105, 111
108, 112, 107, 124
124, 88, 120, 117
110, 124, 109, 102
93, 93, 112, 87
107, 99, 101, 108
105, 94, 104, 124
120, 101, 88, 118
105, 107, 94, 113
106, 112, 81, 101
99, 103, 97, 110
112, 101, 97, 99
99, 112, 98, 99
111, 95, 107, 110
133, 96, 104, 111
106, 118, 100, 109
106, 109, 99, 97
127, 105, 102, 113
118, 145, 135, 121
139, 137, 134, 152
276, 288, 333, 398
199, 225, 230, 148
124, 135, 143, 116
109, 111, 131, 122
114, 104, 124, 126
121, 125, 108, 137
121, 120, 127, 121
122, 140, 112, 112
129, 112, 122, 109
119, 123, 126, 109
110, 135, 129, 128
141, 120, 114, 115
103, 118, 120, 130
127, 115, 143, 116
137, 124, 139, 135
147, 135, 131, 134
143, 148, 158, 141
177, 147, 151, 151
203, 209, 242, 263
1216, 1130, 1131, 1118
277, 253, 245, 255
320, 281, 306, 330
286, 292, 341, 285
243, 219, 254, 297
279, 278, 284, 263
310, 306, 290, 336
318, 298, 306, 317
358, 352, 356, 384
361, 392, 386, 407
398, 435, 448, 430
509, 495, 488, 493
692, 679, 734, 721
2099, 2298, 2294, 2397
14796, 19027, 23301.1, 29698.4
60844.4, 54447.1, 49123.8, 46322
14895.9, 11477, 9096, 7515
1114, 1090, 1054, 979
574, 587, 557, 572
410, 411, 422, 409
361, 283, 335, 346
270, 272, 277, 287
235, 247, 246, 241
237, 246, 224, 244
347, 339, 369, 385
1695, 1822, 1903, 1980
946, 971, 1001, 981
226, 197, 171, 172
168, 149, 138, 131
122, 131, 123, 146
128, 127, 140, 130
137, 130, 140, 122
119, 128, 137, 129
122, 134, 128, 114
133, 149, 122, 131
123, 122, 130, 146
102, 129, 130, 117
107, 119, 123, 111
109, 105, 132, 137
104, 102, 116, 126
99, 102, 120, 138
116, 128, 133, 139
137, 126, 110, 125
128, 116, 119, 102
260
*END

*EOF

File: 1-3_2-Theta_Omega.asc
*TYPE		=  Raw
*CLASS		=  ASCII CLASS
*SAMPLE		=
*COMMENT	=
*FNAME		=  1-3_2-Theta_Omega.asc
*DATE		=  11-Dec-25 15:12

*GROUP_COUNT	=  1
*GONIO		=  SmartLab(In-plane), 0.000000
*ATTACHMENT	=  Z-Phi Stage
*ASC		=  0, 0, 0.000000, 0.000000
*I_MONOCHRO	=  Soller_slit_5.0deg, 0.000000
*FILTER		=  None
*C_MONOCHRO	=  None, 0.000000
*SLIT_NAME	=  0, Incident slit
*SLIT_NAME	=  1, Receiving slit # 1
*SLIT_NAME	=  2, Receiving slit # 2
*COUNTER	=  SC-70, 0
*POS_FORMAT	=  0
*SCAN_AXIS	=  2Theta/Omega
*MEAS_MODE	=  Continuous Scanning
*TARGET		=  29
*XRAY_CHAR	=  K-ALPHA
*WAVE_LENGTH1	=  1.54059
*WAVE_LENGTH2	=  1.54441
*THICKNESS	=  0, 0.000000
*MU		=  0, 0.000000
*SCAN_MODE	=  2Theta/Omega
*SPEED_DIM	=  sec./step
*XUNIT		=  deg.
*YUNIT		=  counts
*SCALE_MODE	=  1
*REP_COUNT	=  0
*SE_COUNT	=  0
*STD_MATERIAL	=  Unknown, Unknown, 0.000000, 0.000000, 0.000000, 0.000000, 0.000000, 0.000000
*LATT_CONS	=  0, Unknown, Unknown, 0.000000, 0.000000, 0.000000, 0.000000, 0.000000, 0.000000
*SEC_COUNT	=  1
*TSPEC_SIZE	=  0
*EXTRA_SIZE	=  0
*MEMO		=

*BEGIN
*GROUP		=  0
*START		=  20
*STOP		=  80
*STEP		=  0.01
*OFFSET		=  0.000000
*SPEED		=  0.05
*SLIT_SPEC	=  0, 1.000mm, 1, 0.000000
*SLIT_SPEC	=  1, 1.000mm, 1, 0.000000
*SLIT_SPEC	=  2, 1.000mm, 1, 0.000000
*KV		=  40
*MA		=  100
*LOW		=  0.000000
*HIGH		=  0.000000
*CTEMPER	=  0, 0.000000
*CTEMPER	=  1, 0.000000
*CTEMPER	=  2, 0.000000
*PAREX		=  0, 0.000000
*PAREX		=  1, 0.000000
*PAREX		=  2, 0.000000
*PAREX		=  3, 0.000000
*PAREX		=  4, 0.000000
*PAREX		=  5, 0.000000
*PAREX		=  6, 0.000000
*PAREX		=  7, 0.000000
*PAREX		=  8, 0.000000
*PAREX		=  9, 0.000000
*PAREX		=  10, 0.000000
*PAREX		=  11, 0.000000
*PAREX		=  12, 0.000000
*PAREX		=  13, 0.000000
*PAREX		=  14, 0.000000
*PAREX		=  15, 0.000000
*FULL_SCALE	=  109728
*INDEX		=  0, 0, 0
*COUNT		=  6001
88, 71, 98, 71
81, 83, 80, 79
88, 82, 86, 101
73, 72, 89, 75
61, 98, 72, 86
102, 97, 85, 99
101, 82, 82, 94
95, 85, 83, 86
100, 98, 84, 97
97, 89, 79, 89
74, 88, 97, 89
82, 89, 78, 85
77, 93, 99, 86
97, 89, 100, 90
83, 99, 102, 82
106, 83, 81, 64
94, 85, 79, 87
88, 71, 93, 84
90, 85, 109, 104
84, 97, 93, 103
85, 92, 84, 92
94, 85, 91, 102
100, 79, 83, 96
82, 93, 94, 84
99, 105, 83, 101
99, 64, 79, 88
81, 93, 99, 104
97, 83, 106, 94
93, 93, 104, 94
87, 93, 89, 80
103, 95, 87, 93
103, 115, 81, 91
87, 91, 74, 81
88, 102, 106, 103
76, 80, 81, 93
103, 87, 96, 83
77, 88, 79, 87
90, 92, 95, 84
81, 85, 86, 86
98, 112, 89, 78
99, 89, 83, 87
123, 89, 84, 77
93, 81, 108, 84
99, 107, 90, 80
80, 105, 102, 104
97, 94, 113, 86
110, 97, 105, 111
96, 96, 92, 105
90, 103, 78, 96
97, 92, 84, 101
91, 89, 110, 94
90, 104, 100, 107
91, 111, 95, 106
103, 100, 106, 97
100, 74, 85, 91
102, 106, 98, 97
87, 97, 82, 95
76, 84, 102, 95
88, 95, 92, 94
96, 91, 115, 105
98, 99, 79, 77
105, 101, 112, 92
108, 98, 94, 88
109, 93, 87, 86
94, 95, 109, 96
108, 98, 92, 105
94, 100, 114, 92
103, 98, 93, 114
100, 101, 105, 100
112, 104, 99, 106
112, 117, 108, 97
92, 107, 91, 92
86, 110, 104, 100
93, 103, 100, 90
104, 93, 97, 108
90, 107, 102, 95
106, 90, 112, 105
105, 101, 97, 115
114, 115, 96, 100
95, 99, 103, 92
104, 82, 108, 115
98, 99, 110, 111
122, 115, 127, 103
111, 108, 109, 99
112, 93, 100, 100
103, 92, 102, 112
99, 89, 116, 97
108, 103, 96, 98
113, 89, 102, 113
106, 102, 119, 104
111, 91, 122, 99
103, 118, 128, 128
130, 115, 139, 149
129, 115, 122, 143
123, 97, 121, 121
104, 129, 123, 129
136, 131, 139, 128
142, 124, 117, 147
158, 148, 173, 160
291, 305, 344, 404
2922, 3114, 3284, 3358
2779, 2567, 2428, 2309
334, 310, 278, 266
145, 148, 154, 127
146, 120, 123, 113
114, 125, 128, 133
118, 123, 119, 103
116, 104, 102, 100
113, 121, 118, 103
88, 122, 109, 110
99, 107, 116, 106
97, 102, 134, 112
88, 103, 97, 95
109, 87, 104, 107
106, 109, 97, 93
106, 85, 118, 95
111, 93, 114, 109
120, 84, 106, 119
104, 99, 89, 95
114, 101, 110, 108
100, 125, 114, 102
120, 116, 103, 112
92, 114, 102, 94
97, 93, 117, 99
96, 116, 95, 119
120, 115, 120, 123
111, 109, 109, 114
110, 107, 115, 101
115, 94, 104, 94
102, 109, 95, 120
100, 103, 115, 112
93, 116, 114, 103
108, 107, 117, 112
118, 115, 103, 106
132, 114, 114, 121
98, 115, 107, 95
110, 120, 109, 94
104, 114, 108, 111
108, 110, 128, 114
104, 117, 123, 98
107, 108, 112, 119
101, 96, 122, 100
100, 98, 108, 124
101, 127, 99, 112
133, 101, 124, 120
95, 93, 109, 118
109, 107, 101, 127
110, 119, 98, 117
104, 105, 108, 98
115, 104, 100, 117
121, 103, 121, 125
110, 110, 111, 108
137, 103, 109, 112
113, 129, 123, 100
114, 111, 100, 109
105, 108, 109, 99
90, 112, 108, 104
109, 112, 93, 127
108, 89, 114, 120
117, 93, 112, 107
129, 105, 116, 121
114, 117, 113, 113
99, 100, 113, 119
98, 104, 122, 93
128, 109, 140, 118
105, 83, 108, 119
113, 121, 105, 110
138, 100, 105, 123
109, 135, 128, 109
108, 107, 107, 123
101, 106, 102, 94
107, 96, 105, 113
116, 96, 109, 92
116, 92, 112, 130
113, 104, 119, 105
118, 109, 122, 116
113, 102, 119, 119
107, 128, 120, 132
109, 96, 119, 104
109, 128, 126, 112
98, 110, 107, 107
121, 128, 108, 103
131, 119, 112, 101
131, 106, 97, 121
114, 124, 113, 132
134, 128, 131, 124
133, 140, 119, 121
117, 118, 115, 114
115, 113, 114, 95
112, 110, 106, 112
147, 131, 112, 95
115, 118, 126, 111
87, 102, 112, 116
114, 115, 130, 132
140, 127, 116, 110
123, 109, 102, 103
112, 120, 135, 114
136, 129, 120, 119
103, 111, 106, 135
106, 124, 124, 116
103, 124, 105, 108
130, 118, 96, 123
117, 140, 109, 91
107, 105, 132, 100
112, 103, 140, 128
110, 132, 116, 118
93, 117, 113, 104
125, 108, 129, 108
120, 117, 131, 123
135, 123, 116, 98
117, 110, 114, 120
114, 120, 111, 125
117, 108, 113, 110
116, 126, 95, 99
132, 125, 122, 133
110, 161, 120, 143
180, 178, 137, 132
133, 128, 125, 114
151, 126, 128, 120
147, 136, 142, 123
137, 147, 135, 124
147, 124, 143, 135
127, 133, 126, 131
154, 125, 151, 149
127, 119, 146, 129
114, 134, 151, 161
153, 123, 139, 153
123, 127, 140, 138
160, 169, 174, 170
290, 297, 298, 281
1048, 1203, 1311, 1357
4351, 4373, 4494, 4531
2818, 2794, 2669, 2602
601, 550, 498, 475
186, 201, 174, 174
141, 165, 144, 136
123, 138, 117, 115
116, 149, 144, 117
138, 115, 127, 133
138, 134, 133, 128
119, 120, 136, 144
132, 136, 126, 140
128, 126, 151, 124
128, 128, 147, 132
129, 130, 106, 110
135, 127, 96, 121
133, 122, 125, 133
116, 125, 138, 146
105, 130, 119, 106
131, 132, 107, 114
115
*END

*EOF

File: 1-4_2-Theta_Omega.asc
*TYPE		=  Raw
*CLASS		=  ASCII CLASS
*SAMPLE		=
*COMMENT	=
*FNAME		=  1-4_2-Theta_Omega.asc
*DATE		=  11-Dec-25 15:21

*GROUP_COUNT	=  1
*GONIO		=  SmartLab(In-plane), 0.000000
*ATTACHMENT	=  Z-Phi Stage
*ASC		=  0, 0, 0.000000, 0.000000
*I_MONOCHRO	=  Soller_slit_5.0deg, 0.000000
*FILTER		=  None
*C_MONOCHRO	=  None, 0.000000
*SLIT_NAME	=  0, Incident slit
*SLIT_NAME	=  1, Receiving slit # 1
*SLIT_NAME	=  2, Receiving slit # 2
*COUNTER	=  SC-70, 0
*POS_FORMAT	=  0
*SCAN_AXIS	=  2Theta/Omega
*MEAS_MODE	=  Continuous Scanning
*TARGET		=  29
*XRAY_CHAR	=  K-ALPHA
*WAVE_LENGTH1	=  1.54059
*WAVE_LENGTH2	=  1.54441
*THICKNESS	=  0, 0.000000
*MU		=  0, 0.000000
*SCAN_MODE	=  2Theta/Omega
*SPEED_DIM	=  sec./step
*XUNIT		=  deg.
*YUNIT		=  counts
*SCALE_MODE	=  1
*REP_COUNT	=  0
*SE_COUNT	=  0
*STD_MATERIAL	=  Unknown, Unknown, 0.000000, 0.000000, 0.000000, 0.000000, 0.000000, 0.000000
*LATT_CONS	=  0, Unknown, Unknown, 0.000000, 0.000000, 0.000000, 0.000000, 0.000000, 0.000000
*SEC_COUNT	=  1
*TSPEC_SIZE	=  0
*EXTRA_SIZE	=  0
*MEMO		=

*BEGIN
*GROUP		=  0
*START		=  20
*STOP		=  80
*STEP		=  0.01
*OFFSET		=  0.000000
*SPEED		=  0.05
*SLIT_SPEC	=  0, 1.000mm, 1, 0.000000
*SLIT_SPEC	=  1, 1.000mm, 1, 0.000000
*SLIT_SPEC	=  2, 1.000mm, 1, 0.000000
*KV		=  40
*MA		=  100
*LOW		=  0.000000
*HIGH		=  0.000000
*CTEMPER	=  0, 0.000000
*CTEMPER	=  1, 0.000000
*CTEMPER	=  2, 0.000000
*PAREX		=  0, 0.000000
*PAREX		=  1, 0.000000
*PAREX		=  2, 0.000000
*PAREX		=  3, 0.000000
*PAREX		=  4, 0.000000
*PAREX		=  5, 0.000000
*PAREX		=  6, 0.000000
*PAREX		=  7, 0.000000
*PAREX		=  8, 0.000000
*PAREX		=  9, 0.000000
*PAREX		=  10, 0.000000
*PAREX		=  11, 0.000000
*PAREX		=  12, 0.000000
*PAREX		=  13, 0.000000
*PAREX		=  14, 0.000000
*PAREX		=  15, 0.000000
*FULL_SCALE	=  7440
*INDEX		=  0, 0, 0
*COUNT		=  6001
76, 75, 86, 78
77, 75, 78, 65
87, 84, 84, 94
71, 84, 84, 90
84, 73, 86, 95
74, 70, 74, 77
79, 83, 84, 75
97, 77, 90, 81
107, 83, 81, 105
64, 89, 76, 78
81, 72, 67, 92
78, 83, 73, 92
92, 80, 76, 77
84, 62, 76, 65
69, 78, 78, 88
60, 90, 77, 71
79, 81, 77, 90
76, 71, 67, 89
69, 75, 83, 61
77, 88, 63, 82
70, 74, 72, 64
78, 72, 76, 81
70, 73, 78, 89
82, 79, 67, 82
80, 78, 76, 85
77, 80, 57, 73
81, 77, 69, 84
78, 68, 88, 79
85, 81, 73, 66
85, 67, 69, 79
82, 67, 75, 68
73, 70, 76, 84
78, 59, 93, 76
79, 90, 70, 62
76, 64, 89, 72
74, 70, 77, 74
69, 71, 75, 78
86, 81, 87, 86
71, 88, 65, 83
75, 81, 75, 55
73, 68, 65, 63
87, 64, 70, 73
81, 67, 72, 84
84, 106, 86, 83
80, 72, 87, 57
80, 84, 85, 62
61, 84, 75, 70
79, 68, 93, 82
69, 77, 79, 64
69, 76, 78, 72
69, 81, 61, 68
77, 71, 57, 77
81, 78, 75, 72
82, 85, 63, 74
78, 82, 69, 68
73, 66, 81, 73
82, 84, 70, 69
69, 78, 75, 65
75, 66, 67, 77
74, 89, 79, 71
60, 67, 58, 54
74, 64, 56, 68
85, 73, 78, 65
65, 66, 73, 78
68, 77, 75, 76
77, 67, 75, 73
83, 74, 77, 64
74, 72, 60, 72
94, 65, 66, 68
73, 83, 77, 77
81, 69, 69, 64
75, 71, 63, 79
81, 76, 86, 69
65, 71, 71, 73
72, 75, 84, 69
63, 80, 79, 56
68, 79, 79, 67
84, 73, 54, 66
84, 72, 66, 78
83, 56, 73, 70
72, 77, 90, 74
73, 79, 74, 76
61, 73, 65, 80
65, 74, 73, 77
82, 67, 64, 91
73, 65, 78, 71
73, 72, 93, 84
76, 63, 61, 70
85, 80, 87, 86
74, 56, 69, 72
72, 62, 76, 80
221, 258, 245, 268
140, 143, 148, 121
101, 102, 87, 84
68, 88, 82, 92
67, 90, 85, 82
68, 75, 74, 91
94, 85, 78, 73
77, 106, 90, 87
158, 178, 157, 177
263, 275, 255, 223
197, 211, 203, 228
151, 126, 146, 145
102, 79, 76, 86
90, 68, 61, 70
88, 84, 60, 67
66, 65, 67, 83
84, 68, 83, 74
67, 84, 76, 58
81, 77, 68, 66
84, 78, 73, 69
58, 77, 78, 65
67, 62, 65, 68
85, 70, 76, 91
65, 79, 76, 75
78, 78, 92, 82
84, 62, 65, 74
61, 57, 76, 81
69, 74, 82, 66
61, 81, 74, 61
56, 67, 96, 66
83, 78, 78, 81
66, 78, 65, 79
87, 76, 87, 66
65, 67, 81, 74
87, 70, 68, 85
82, 75, 69, 75
71, 77, 67, 79
72, 87, 83, 69
78, 84, 75, 76
77, 85, 74, 67
67, 68, 75, 80
55, 79, 81, 81
74, 74, 66, 69
74, 67, 77, 80
87, 69, 74, 84
68, 85, 92, 66
59, 70, 87, 77
70, 84, 81, 74
66, 72, 65, 69
69, 70, 82, 88
79, 85, 82, 63
70, 77, 74, 66
68, 67, 69, 75
67, 74, 79, 82
70, 69, 92, 77
75, 71, 84, 92
65, 102, 86, 76
77, 68, 76, 67
61, 81, 73, 82
84, 72, 68, 77
71, 90, 75, 67
79, 81, 76, 78
77, 75, 71, 84
80, 87, 83, 81
70, 75, 71, 70
71, 67, 61, 83
73, 75, 74, 69
79, 84, 64, 81
87, 84, 61, 82
67, 76, 67, 73
81, 88, 79, 72
81, 93, 79, 91
73, 71, 71, 80
90, 74, 67, 63
82, 74, 69, 68
71, 62, 67, 91
74, 74, 76, 62
83, 64, 90, 86
81, 62, 83, 76
70, 87, 80, 78
68, 72, 67, 83
81, 71, 68, 96
77, 83, 57, 75
89, 85, 78, 68
67, 70, 74, 75
88, 86, 80, 81
72, 68, 77, 82
86, 72, 90, 72
87, 85, 76, 77
84, 89, 68, 82
76, 66, 71, 64
81, 78, 73, 80
73, 85, 82, 77
67, 78, 96, 74
83, 80, 85, 84
90, 89, 86, 89
80, 83, 80, 78
78, 73, 86, 79
102, 73, 61, 80
91, 87, 77, 84
79, 75, 87, 83
74, 68, 84, 84
69, 91, 79, 80
75, 79, 74, 71
74, 102, 77, 83
78, 104, 81, 61
72, 94, 76, 64
70, 77, 79, 73
80, 82, 79, 72
74, 70, 72, 63
75, 73, 70, 81
73, 64, 74, 63
82, 77, 79, 70
98, 75, 63, 87
94, 58, 75, 69
70, 61, 75, 107
71, 71, 78, 72
95, 89, 75, 83
75, 70, 95, 74
64, 61, 63, 87
76, 66, 75, 88
86, 101, 75, 93
70, 72, 84, 61
82, 73, 72, 101
81, 89, 80, 60
95, 74, 85, 66
75, 90, 74, 82
73, 72, 86, 85
84, 87, 78, 73
66, 86, 85, 67
86, 107, 92, 86
88, 85, 91, 77
85, 65, 89, 94
89, 92, 86, 86
84, 82, 93, 90
77, 82, 80, 94
83, 88, 87, 77
72, 80, 93, 67
73, 84, 90, 90
115, 115, 91, 100
99, 103, 107, 104
87, 77, 88, 104
67, 88, 82, 74
80, 81, 64, 76
84, 79, 83, 84
80, 84, 69, 87
95, 102, 100, 87
101, 87, 77, 91
95, 79, 78, 75
78, 82, 84, 85
73, 76, 79, 76
74, 76, 90, 74
92, 79, 80, 91
91, 108, 100, 82
77, 83, 76, 99
93, 76, 85, 86
80, 93, 76, 85
88, 73, 81, 88
85, 76, 72, 67
74
*END

*EOF