Folder: physicsEX_report/data/1105

File: SiNx_2-Theta_Omega.asc
*TYPE		=  Raw
*CLASS		=  ASCII CLASS
*SAMPLE		=
*COMMENT	=
*FNAME		=  SiNx_2-Theta_Omega.asc
*DATE		=  05-Nov-25 16:28

*GROUP_COUNT	=  1
*GONIO		=  SmartLab(In-plane), 0.000000
*ATTACHMENT	=  Z-Phi Stage
*ASC		=  0, 0, 0.000000, 0.000000
*I_MONOCHRO	=  Soller_slit_5.0deg, 0.000000
*FILTER		=  None
*C_MONOCHRO	=  None, 0.000000
*SLIT_NAME	=  0, Incident slit
*SLIT_NAME	=  1, Receiving slit # 1
*SLIT_NAME	=  2, Receiving slit # 2
*COUNTER	=  SC-70, 0
*POS_FORMAT	=  0
*SCAN_AXIS	=  2Theta/Omega
*MEAS_MODE	=  Continuous Scanning
*TARGET		=  29
*XRAY_CHAR	=  K-ALPHA
*WAVE_LENGTH1	=  1.54059
*WAVE_LENGTH2	=  1.54441
*THICKNESS	=  0, 0.000000
*MU		=  0, 0.000000
*SCAN_MODE	=  2Theta/Omega
*SPEED_DIM	=  sec./step
*XUNIT		=  deg.
*YUNIT		=  counts
*SCALE_MODE	=  1
*REP_COUNT	=  0
*SE_COUNT	=  0
*STD_MATERIAL	=  Unknown, Unknown, 0.000000, 0.000000, 0.000000, 0.000000, 0.000000, 0.000000
*LATT_CONS	=  0, Unknown, Unknown, 0.000000, 0.000000, 0.000000, 0.000000, 0.000000, 0.000000
*SEC_COUNT	=  1
*TSPEC_SIZE	=  0
*EXTRA_SIZE	=  0
*MEMO		=

*BEGIN
*GROUP		=  0
*START		=  10
*STOP		=  80
*STEP		=  0.01
*OFFSET		=  0.000000
*SPEED		=  0.12
*SLIT_SPEC	=  0, 1.000mm, 1, 0.000000
*SLIT_SPEC	=  1, 1.000mm, 1, 0.000000
*SLIT_SPEC	=  2, 1.000mm, 1, 0.000000
*KV		=  40
*MA		=  100
*LOW		=  0.000000
*HIGH		=  0.000000
*CTEMPER	=  0, 0.000000
*CTEMPER	=  1, 0.000000
*CTEMPER	=  2, 0.000000
*PAREX		=  0, 0.000000
*PAREX		=  1, 0.000000
*PAREX		=  2, 0.000000
*PAREX		=  3, 0.000000
*PAREX		=  4, 0.000000
*PAREX		=  5, 0.000000
*PAREX		=  6, 0.000000
*PAREX		=  7, 0.000000
*PAREX		=  8, 0.000000
*PAREX		=  9, 0.000000
*PAREX		=  10, 0.000000
*PAREX		=  11, 0.000000
*PAREX		=  12, 0.000000
*PAREX		=  13, 0.000000
*PAREX		=  14, 0.000000
*PAREX		=  15, 0.000000
*FULL_SCALE	=  34120
*INDEX		=  0, 0, 0
*COUNT		=  7001
40, 33, 35, 39
48, 36, 34, 37
44, 38, 34, 36
45, 35, 39, 45
48, 28, 35, 42
33, 26, 42, 43
35, 38, 25, 36
22, 38, 43, 33
35, 39, 28, 25
27, 31, 24, 33
23, 31, 44, 23
34, 20, 31, 25
37, 35, 21, 31
24, 31, 34, 22
29, 25, 29, 29
27, 22, 22, 28
26, 38, 32, 32
38, 21, 32, 19
31, 28, 20, 24
19, 25, 29, 19
18, 22, 18, 25
29, 38, 22, 26
25, 24, 20, 32
22, 32, 24, 22
28, 31, 24, 28
22, 11, 31, 21
18, 16, 23, 17
21, 21, 18, 28
17, 22, 23, 18
20, 24, 21, 22
10, 18, 19, 28
12, 15, 28, 14
24, 16, 17, 25
20, 15, 20, 21
16, 22, 25, 21
25, 19, 18, 24
17, 21, 11, 21
18, 20, 25, 17
17, 22, 24, 15
17, 15, 24, 16
13, 17, 22, 13
29, 15, 22, 17
16, 15, 18, 20
18, 15, 20, 24
16, 14, 16, 25
22, 14, 22, 25
22, 17, 20, 18
16, 14, 17, 26
12, 18, 13, 26
17, 20, 15, 13
14, 15, 20, 13
20, 17, 12, 11
11, 21, 17, 13
20, 15, 16, 13
19, 22, 13, 14
19, 21, 17, 19
25, 19, 11, 9
6, 8, 12, 10
15, 17, 9, 7
15, 12, 17, 8
21, 8, 14, 15
14, 6, 12, 12
17, 19, 11, 22
12, 11, 17, 9
11, 8, 5, 15
13, 20, 6, 10
13, 23, 17, 12
15, 15, 14, 15
14, 13, 20, 15
19, 14, 15, 12
14, 13, 19, 19
8, 13, 12, 11
16, 14, 14, 11
17, 13, 14, 15
6, 16, 14, 16
11, 19, 9, 15
13, 10, 11, 13
7, 6, 7, 13
7, 8, 11, 9
11, 17, 12, 14
15, 9, 11, 14
23, 14, 13, 12
17, 7, 12, 8
22, 15, 13, 15
10, 12, 15, 9
16, 12, 14, 11
8, 12, 8, 8
14, 7, 11, 10
14, 14, 9, 10
13, 12, 10, 8
17, 10, 10, 11
10, 11, 13, 16
16, 14, 8, 16
14, 15, 6, 24
9, 10, 11, 10
10, 5, 14, 16
16, 14, 12, 18
5, 14, 15, 19
12, 15, 16, 10
14, 6, 9, 14
15, 14, 4, 12
14, 7, 13, 11
12, 14, 12, 11
13, 5, 15, 9
9, 15, 16, 17
10, 11, 10, 12
11, 12, 9, 15
15, 20, 11, 11
15, 14, 13, 7
12, 19, 7, 10
6, 11, 15, 15
14, 15, 16, 8
13, 21, 12, 16
14, 17, 21, 13
13, 15, 9, 13
19, 10, 13, 10
15, 14, 16, 11
13, 16, 18, 11
9, 18, 16, 10
23, 17, 14, 12
14, 16, 14, 16
15, 15, 15, 16
12, 13, 19, 12
13, 16, 19, 15
15, 15, 16, 13
16, 13, 13, 21
23, 16, 19, 16
17, 15, 31, 19
19, 19, 24, 17
17, 23, 14, 17
18, 12, 18, 24
14, 14, 29, 33
24, 13, 24, 26
21, 27, 18, 28
29, 18, 29, 28
34, 37, 35, 29
59, 38, 31, 32
28, 31, 29, 28
29, 33, 34, 30
44, 27, 20, 31
29, 35, 33, 38
40, 39, 35, 32
41, 41, 44, 46
48, 56, 56, 58
59, 61, 56, 53
68, 62, 70, 60
87, 71, 100, 108
128, 109, 107, 125
127, 109, 104, 110
123, 131, 163, 163
153, 159, 165, 172
247, 243, 246, 230
309, 304, 308, 333
503, 523, 536, 480
953, 982, 1058, 1050
2511, 2591, 2748, 2781
2858, 2743, 2696, 2663
1151, 1137, 1032, 960
543, 563, 559, 498
320, 326, 301, 348
208, 246, 227, 227
148, 149, 167, 176
133, 147, 133, 126
90, 102, 107, 93
100, 94, 93, 89
70, 83, 79, 79
64, 71, 72, 53
68, 59, 70, 72
62, 62, 65, 62
54, 45, 53, 60
62, 54, 59, 55
53, 53, 58, 59
64, 64, 54, 62
44, 51, 54, 48
53, 61, 51, 45
47, 51, 55, 38
42, 46, 39, 40
34, 39, 40, 36
34, 37, 32, 25
27, 26, 25, 32
35, 30, 26, 24
25, 26, 28, 31
15, 24, 27, 22
22, 22, 23, 30
16, 29, 21, 19
20, 19, 20, 27
22, 25, 14, 12
20, 16, 22, 26
19, 14, 23, 19
15, 15, 19, 21
18, 10, 18, 10
13, 21, 14, 19
15, 15, 16, 13
18, 14, 18, 12
17, 15, 17, 14
8, 16, 13, 17
8, 18, 12, 10
22, 19, 12, 10
14, 12, 12, 21
15, 19, 11, 12
14, 17, 20, 12
15, 14, 19, 11
14, 10, 7, 11
14, 13, 15, 9
12, 17, 12, 9
13, 8, 15, 14
6, 13, 15, 16
12, 15, 15, 6
13, 6, 10, 9
11, 11, 19, 4
9, 13, 13, 10
16, 22, 16, 7
11, 11, 14, 20
15, 12, 9, 11
15, 9, 12, 6
12, 13, 13, 10
10, 13, 5, 15
13, 10, 9, 9
15, 9, 14, 11
8, 10, 17, 12
11, 7, 11, 7
9, 9, 10, 10
12, 8, 10, 11
7, 12, 7, 7
6, 6, 17, 13
10, 13, 19, 6
11, 6, 8, 21
9, 7, 9, 6
11, 12, 12, 8
10, 10, 12, 9
7, 14, 8, 12
9, 13, 10, 10
7, 5, 9, 9
8, 9, 12, 7
10, 12, 6, 6
5, 6, 18, 9
10, 11, 10, 18
11, 14, 10, 8
18, 10, 8, 9
11, 7, 9, 12
8, 14, 16, 9
9, 14, 6, 10
8, 12, 7, 8
8, 6, 9, 6
8, 10, 9, 11
11, 7, 7, 10
7, 8, 9, 7
12, 7, 8, 9
8, 7, 8, 12
12, 7, 9, 9
6, 9, 12, 14
10, 7, 3, 8
12, 13, 8, 9
15, 15, 15, 4
6, 9, 8, 6
6, 7, 9, 4
10, 9, 13, 11
5, 6, 9, 8
6, 9, 11, 7
10, 12, 9, 8
6, 12, 15, 11
8, 11, 11, 12
12, 7, 7, 5
9, 12, 10, 11
10, 8, 6, 9
6, 4, 14, 9
10, 7, 6, 14
10, 6, 5, 13
5, 11, 4, 8
9, 12, 12, 9
9, 7, 7, 10
12, 11, 14, 9
15, 9, 6, 13
13, 8, 17, 4
12, 13, 7, 13
11, 10, 7, 10
10, 3, 9, 9
16, 11, 11, 8
6, 19, 7, 8
6, 9, 6, 2
7, 10, 7, 12
16, 9, 7, 15
7, 10, 18, 8
10, 7, 9, 9
10, 7, 10, 3
13, 16, 9, 11
8, 7, 3, 9
14, 5, 6, 17
12, 9, 11, 11
6, 9, 6, 6
9, 9, 8, 9
11, 14, 10, 8
5
*END

*EOF